#
# Results on Monday November 02 2020 01:42:45 UTC.
# USER AGENT: Mozilla/5.0 (Windows NT 10.0; Win64; x64) AppleWebKit/537.36 (KHTML, like Gecko) Chrome/86.0.4240.111 Safari/537.36
# Design number was non-random = 0
#
# Columns below this comment are as follows:
# 1. Time results were received.
# 2. MD5 hash of participant's IP address.
# 3. Controller name.
# 4. Item number.
# 5. Element number.
# 6. Type.
# 7. Group.
# 8. Field name.
# 9. Field value.
1604281365,b629cab85878712ab84bccadf565e522,Form,1,0,intro,NULL,TurkID,A3V1VK1A3NYN17
1604281365,b629cab85878712ab84bccadf565e522,Form,1,0,intro,NULL,_REACTION_TIME_,5447
1604281365,b629cab85878712ab84bccadf565e522,Form,2,0,instructions,NULL,_REACTION_TIME_,6612
1604281365,b629cab85878712ab84bccadf565e522,RangeForm,4,0,practice1,NULL,plus_trigger,1
1604281365,b629cab85878712ab84bccadf565e522,RangeForm,4,0,practice1,NULL,minus_trigger,100
1604281365,b629cab85878712ab84bccadf565e522,RangeForm,5,0,practice1,NULL,minus_trigger,78
1604281365,b629cab85878712ab84bccadf565e522,RangeForm,5,0,practice1,NULL,plus_trigger,69
1604281365,b629cab85878712ab84bccadf565e522,RangeForm,6,0,practice1,NULL,plus_trigger,1
1604281365,b629cab85878712ab84bccadf565e522,RangeForm,6,0,practice1,NULL,minus_trigger,100
1604281365,b629cab85878712ab84bccadf565e522,RangeForm,15,0,target_only_base_positive,4,plus_trigger,27
1604281365,b629cab85878712ab84bccadf565e522,RangeForm,15,0,target_only_base_positive,4,minus_trigger,75
1604281365,b629cab85878712ab84bccadf565e522,RangeForm,39,0,target_cleft_base_positive,16,plus_trigger,66
1604281365,b629cab85878712ab84bccadf565e522,RangeForm,39,0,target_cleft_base_positive,16,minus_trigger,84
1604281365,b629cab85878712ab84bccadf565e522,RangeForm,134,0,target_still_base_neutral,63,plus_trigger,74
1604281365,b629cab85878712ab84bccadf565e522,RangeForm,134,0,target_still_base_neutral,63,minus_trigger,100
1604281365,b629cab85878712ab84bccadf565e522,RangeForm,30,0,target_too_base_neutral,11,plus_trigger,16
1604281365,b629cab85878712ab84bccadf565e522,RangeForm,30,0,target_too_base_neutral,11,minus_trigger,83
1604281365,b629cab85878712ab84bccadf565e522,RangeForm,42,0,target_cleft_base_neutral,17,plus_trigger,1
1604281365,b629cab85878712ab84bccadf565e522,RangeForm,42,0,target_cleft_base_neutral,17,minus_trigger,100
1604281365,b629cab85878712ab84bccadf565e522,RangeForm,131,0,target_still_base_positive,62,plus_trigger,97
1604281365,b629cab85878712ab84bccadf565e522,RangeForm,131,0,target_still_base_positive,62,minus_trigger,39
1604281365,b629cab85878712ab84bccadf565e522,RangeForm,38,0,target_cleft_base_neutral,15,minus_trigger,100
1604281365,b629cab85878712ab84bccadf565e522,RangeForm,38,0,target_cleft_base_neutral,15,plus_trigger,1
1604281365,b629cab85878712ab84bccadf565e522,RangeForm,31,0,target_too_base_positive,12,minus_trigger,54
1604281365,b629cab85878712ab84bccadf565e522,RangeForm,31,0,target_too_base_positive,12,plus_trigger,100
1604281365,b629cab85878712ab84bccadf565e522,RangeForm,74,0,target_possessive_base_neutral,33,plus_trigger,100
1604281365,b629cab85878712ab84bccadf565e522,RangeForm,74,0,target_possessive_base_neutral,33,minus_trigger,30
1604281365,b629cab85878712ab84bccadf565e522,RangeForm,87,0,target_question_base_positive,40,minus_trigger,37
1604281365,b629cab85878712ab84bccadf565e522,RangeForm,87,0,target_question_base_positive,40,plus_trigger,91
1604281365,b629cab85878712ab84bccadf565e522,RangeForm,35,0,target_too_base_positive,14,minus_trigger,2
1604281365,b629cab85878712ab84bccadf565e522,RangeForm,35,0,target_too_base_positive,14,plus_trigger,100
1604281365,b629cab85878712ab84bccadf565e522,RangeForm,123,0,target_stateChange_base_positive,58,minus_trigger,30
1604281365,b629cab85878712ab84bccadf565e522,RangeForm,123,0,target_stateChange_base_positive,58,plus_trigger,89
1604281365,b629cab85878712ab84bccadf565e522,RangeForm,126,0,target_stateChange_base_neutral,59,minus_trigger,95
1604281365,b629cab85878712ab84bccadf565e522,RangeForm,126,0,target_stateChange_base_neutral,59,plus_trigger,66
1604281365,b629cab85878712ab84bccadf565e522,RangeForm,71,0,target_possessive_base_positive,32,plus_trigger,100
1604281365,b629cab85878712ab84bccadf565e522,RangeForm,71,0,target_possessive_base_positive,32,minus_trigger,76
1604281365,b629cab85878712ab84bccadf565e522,RangeForm,14,0,target_only_base_neutral,3,plus_trigger,42
1604281365,b629cab85878712ab84bccadf565e522,RangeForm,14,0,target_only_base_neutral,3,minus_trigger,100
1604281365,b629cab85878712ab84bccadf565e522,RangeForm,46,0,target_cleft_base_neutral,19,minus_trigger,100
1604281365,b629cab85878712ab84bccadf565e522,RangeForm,46,0,target_cleft_base_neutral,19,plus_trigger,1
1604281365,b629cab85878712ab84bccadf565e522,RangeForm,83,0,target_definite_base_positive,38,plus_trigger,100
1604281365,b629cab85878712ab84bccadf565e522,RangeForm,83,0,target_definite_base_positive,38,minus_trigger,13
1604281365,b629cab85878712ab84bccadf565e522,RangeForm,95,0,target_question_base_positive,44,minus_trigger,64
1604281365,b629cab85878712ab84bccadf565e522,RangeForm,95,0,target_question_base_positive,44,plus_trigger,94
1604281365,b629cab85878712ab84bccadf565e522,RangeForm,43,0,target_cleft_base_positive,18,minus_trigger,100
1604281365,b629cab85878712ab84bccadf565e522,RangeForm,43,0,target_cleft_base_positive,18,plus_trigger,1
1604281365,b629cab85878712ab84bccadf565e522,RangeForm,78,0,target_definite_base_neutral,35,plus_trigger,91
1604281365,b629cab85878712ab84bccadf565e522,RangeForm,78,0,target_definite_base_neutral,35,minus_trigger,55
1604281365,b629cab85878712ab84bccadf565e522,RangeForm,63,0,target_accomplishment_base_positive,28,minus_trigger,83
1604281365,b629cab85878712ab84bccadf565e522,RangeForm,63,0,target_accomplishment_base_positive,28,plus_trigger,100
1604281365,b629cab85878712ab84bccadf565e522,RangeForm,34,0,target_too_base_neutral,13,plus_trigger,1
1604281365,b629cab85878712ab84bccadf565e522,RangeForm,34,0,target_too_base_neutral,13,minus_trigger,100
1604281365,b629cab85878712ab84bccadf565e522,RangeForm,102,0,target_again_base_neutral,47,minus_trigger,100
1604281365,b629cab85878712ab84bccadf565e522,RangeForm,102,0,target_again_base_neutral,47,plus_trigger,74
1604281365,b629cab85878712ab84bccadf565e522,RangeForm,54,0,target_embedding_base_neutral,23,plus_trigger,98
1604281365,b629cab85878712ab84bccadf565e522,RangeForm,54,0,target_embedding_base_neutral,23,minus_trigger,71
1604281365,b629cab85878712ab84bccadf565e522,RangeForm,91,0,target_question_base_positive,42,minus_trigger,36
1604281365,b629cab85878712ab84bccadf565e522,RangeForm,91,0,target_question_base_positive,42,plus_trigger,96
1604281365,b629cab85878712ab84bccadf565e522,RangeForm,27,0,target_too_base_positive,10,minus_trigger,35
1604281365,b629cab85878712ab84bccadf565e522,RangeForm,27,0,target_too_base_positive,10,plus_trigger,100
1604281365,b629cab85878712ab84bccadf565e522,RangeForm,86,0,target_definite_base_neutral,39,minus_trigger,93
1604281365,b629cab85878712ab84bccadf565e522,RangeForm,86,0,target_definite_base_neutral,39,plus_trigger,24
1604281365,b629cab85878712ab84bccadf565e522,RangeForm,58,0,target_accomplishment_base_neutral,25,minus_trigger,80
1604281365,b629cab85878712ab84bccadf565e522,RangeForm,58,0,target_accomplishment_base_neutral,25,plus_trigger,75
1604281365,b629cab85878712ab84bccadf565e522,RangeForm,7,0,target_only_base_positive,0,plus_trigger,34
1604281365,b629cab85878712ab84bccadf565e522,RangeForm,7,0,target_only_base_positive,0,minus_trigger,91
1604281365,b629cab85878712ab84bccadf565e522,RangeForm,66,0,target_accomplishment_base_neutral,29,plus_trigger,81
1604281365,b629cab85878712ab84bccadf565e522,RangeForm,66,0,target_accomplishment_base_neutral,29,minus_trigger,84
1604281365,b629cab85878712ab84bccadf565e522,RangeForm,106,0,target_again_base_neutral,49,minus_trigger,76
1604281365,b629cab85878712ab84bccadf565e522,RangeForm,106,0,target_again_base_neutral,49,plus_trigger,66
1604281365,b629cab85878712ab84bccadf565e522,RangeForm,135,0,target_still_base_positive,64,minus_trigger,34
1604281365,b629cab85878712ab84bccadf565e522,RangeForm,135,0,target_still_base_positive,64,plus_trigger,96
1604281365,b629cab85878712ab84bccadf565e522,RangeForm,62,0,target_accomplishment_base_neutral,27,minus_trigger,82
1604281365,b629cab85878712ab84bccadf565e522,RangeForm,62,0,target_accomplishment_base_neutral,27,plus_trigger,98
1604281365,b629cab85878712ab84bccadf565e522,RangeForm,10,0,target_only_base_neutral,1,minus_trigger,88
1604281365,b629cab85878712ab84bccadf565e522,RangeForm,10,0,target_only_base_neutral,1,plus_trigger,9
1604281365,b629cab85878712ab84bccadf565e522,RangeForm,98,0,target_again_base_neutral,45,plus_trigger,68
1604281365,b629cab85878712ab84bccadf565e522,RangeForm,98,0,target_again_base_neutral,45,minus_trigger,86
1604281365,b629cab85878712ab84bccadf565e522,RangeForm,22,0,target_even_base_neutral,7,minus_trigger,100
1604281365,b629cab85878712ab84bccadf565e522,RangeForm,22,0,target_even_base_neutral,7,plus_trigger,1
1604281365,b629cab85878712ab84bccadf565e522,RangeForm,115,0,target_back_base_positive,54,minus_trigger,93
1604281365,b629cab85878712ab84bccadf565e522,RangeForm,115,0,target_back_base_positive,54,plus_trigger,67
1604281365,b629cab85878712ab84bccadf565e522,RangeForm,67,0,target_possessive_base_positive,30,minus_trigger,74
1604281365,b629cab85878712ab84bccadf565e522,RangeForm,67,0,target_possessive_base_positive,30,plus_trigger,96
1604281365,b629cab85878712ab84bccadf565e522,RangeForm,107,0,target_back_base_positive,50,plus_trigger,67
1604281365,b629cab85878712ab84bccadf565e522,RangeForm,107,0,target_back_base_positive,50,minus_trigger,95
1604281365,b629cab85878712ab84bccadf565e522,RangeForm,18,0,target_even_base_neutral,5,minus_trigger,100
1604281365,b629cab85878712ab84bccadf565e522,RangeForm,18,0,target_even_base_neutral,5,plus_trigger,1
1604281365,b629cab85878712ab84bccadf565e522,RangeForm,51,0,target_embedding_base_positive,22,minus_trigger,15
1604281365,b629cab85878712ab84bccadf565e522,RangeForm,51,0,target_embedding_base_positive,22,plus_trigger,95
1604281365,b629cab85878712ab84bccadf565e522,RangeForm,110,0,target_back_base_neutral,51,plus_trigger,57
1604281365,b629cab85878712ab84bccadf565e522,RangeForm,110,0,target_back_base_neutral,51,minus_trigger,89
1604281365,b629cab85878712ab84bccadf565e522,RangeForm,50,0,target_embedding_base_neutral,21,plus_trigger,97
1604281365,b629cab85878712ab84bccadf565e522,RangeForm,50,0,target_embedding_base_neutral,21,minus_trigger,61
1604281365,b629cab85878712ab84bccadf565e522,RangeForm,127,0,target_still_base_positive,60,minus_trigger,64
1604281365,b629cab85878712ab84bccadf565e522,RangeForm,127,0,target_still_base_positive,60,plus_trigger,100
1604281365,b629cab85878712ab84bccadf565e522,RangeForm,19,0,target_even_base_positive,6,plus_trigger,100
1604281365,b629cab85878712ab84bccadf565e522,RangeForm,19,0,target_even_base_positive,6,minus_trigger,100
1604281365,b629cab85878712ab84bccadf565e522,RangeForm,118,0,target_stateChange_base_neutral,55,plus_trigger,83
1604281365,b629cab85878712ab84bccadf565e522,RangeForm,118,0,target_stateChange_base_neutral,55,minus_trigger,84
1604281365,b629cab85878712ab84bccadf565e522,RangeForm,99,0,target_again_base_positive,46,plus_trigger,100
1604281365,b629cab85878712ab84bccadf565e522,RangeForm,99,0,target_again_base_positive,46,minus_trigger,93
1604281365,b629cab85878712ab84bccadf565e522,RangeForm,55,0,target_embedding_base_positive,24,plus_trigger,100
1604281365,b629cab85878712ab84bccadf565e522,RangeForm,55,0,target_embedding_base_positive,24,minus_trigger,95
1604281365,b629cab85878712ab84bccadf565e522,RangeForm,79,0,target_definite_base_positive,36,minus_trigger,88
1604281365,b629cab85878712ab84bccadf565e522,RangeForm,79,0,target_definite_base_positive,36,plus_trigger,100
1604281365,b629cab85878712ab84bccadf565e522,RangeForm,90,0,target_question_base_neutral,41,plus_trigger,24
1604281365,b629cab85878712ab84bccadf565e522,RangeForm,90,0,target_question_base_neutral,41,minus_trigger,99
1604281365,b629cab85878712ab84bccadf565e522,RangeForm,26,0,target_even_base_neutral,9,minus_trigger,80
1604281365,b629cab85878712ab84bccadf565e522,RangeForm,26,0,target_even_base_neutral,9,plus_trigger,91
1604281365,b629cab85878712ab84bccadf565e522,RangeForm,11,0,target_only_base_positive,2,plus_trigger,1
1604281365,b629cab85878712ab84bccadf565e522,RangeForm,11,0,target_only_base_positive,2,minus_trigger,80
1604281365,b629cab85878712ab84bccadf565e522,RangeForm,23,0,target_even_base_positive,8,plus_trigger,91
1604281365,b629cab85878712ab84bccadf565e522,RangeForm,23,0,target_even_base_positive,8,minus_trigger,95
1604281365,b629cab85878712ab84bccadf565e522,RangeForm,111,0,target_back_base_positive,52,minus_trigger,100
1604281365,b629cab85878712ab84bccadf565e522,RangeForm,111,0,target_back_base_positive,52,plus_trigger,62
1604281365,b629cab85878712ab84bccadf565e522,RangeForm,70,0,target_possessive_base_neutral,31,plus_trigger,100
1604281365,b629cab85878712ab84bccadf565e522,RangeForm,70,0,target_possessive_base_neutral,31,minus_trigger,71
1604281365,b629cab85878712ab84bccadf565e522,RangeForm,94,0,target_question_base_neutral,43,minus_trigger,97
1604281365,b629cab85878712ab84bccadf565e522,RangeForm,94,0,target_question_base_neutral,43,plus_trigger,15
1604281365,b629cab85878712ab84bccadf565e522,RangeForm,122,0,target_stateChange_base_neutral,57,plus_trigger,81
1604281365,b629cab85878712ab84bccadf565e522,RangeForm,122,0,target_stateChange_base_neutral,57,minus_trigger,82
1604281365,b629cab85878712ab84bccadf565e522,RangeForm,82,0,target_definite_base_neutral,37,plus_trigger,100
1604281365,b629cab85878712ab84bccadf565e522,RangeForm,82,0,target_definite_base_neutral,37,minus_trigger,68
1604281365,b629cab85878712ab84bccadf565e522,RangeForm,130,0,target_still_base_neutral,61,minus_trigger,95
1604281365,b629cab85878712ab84bccadf565e522,RangeForm,130,0,target_still_base_neutral,61,plus_trigger,70
1604281365,b629cab85878712ab84bccadf565e522,RangeForm,114,0,target_back_base_neutral,53,plus_trigger,68
1604281365,b629cab85878712ab84bccadf565e522,RangeForm,114,0,target_back_base_neutral,53,minus_trigger,96
1604281365,b629cab85878712ab84bccadf565e522,RangeForm,103,0,target_again_base_positive,48,plus_trigger,91
1604281365,b629cab85878712ab84bccadf565e522,RangeForm,103,0,target_again_base_positive,48,minus_trigger,90
1604281365,b629cab85878712ab84bccadf565e522,RangeForm,59,0,target_accomplishment_base_positive,26,minus_trigger,84
1604281365,b629cab85878712ab84bccadf565e522,RangeForm,59,0,target_accomplishment_base_positive,26,plus_trigger,79
1604281365,b629cab85878712ab84bccadf565e522,RangeForm,75,0,target_possessive_base_positive,34,minus_trigger,64
1604281365,b629cab85878712ab84bccadf565e522,RangeForm,75,0,target_possessive_base_positive,34,plus_trigger,100
1604281365,b629cab85878712ab84bccadf565e522,RangeForm,119,0,target_stateChange_base_positive,56,plus_trigger,90
1604281365,b629cab85878712ab84bccadf565e522,RangeForm,119,0,target_stateChange_base_positive,56,minus_trigger,35
1604281365,b629cab85878712ab84bccadf565e522,RangeForm,47,0,target_embedding_base_positive,20,plus_trigger,96
1604281365,b629cab85878712ab84bccadf565e522,RangeForm,47,0,target_embedding_base_positive,20,minus_trigger,10
1604281365,b629cab85878712ab84bccadf565e522,Form,3,0,outro,NULL,review,Is there anything you would like us to know about the survey?%0A
1604281365,b629cab85878712ab84bccadf565e522,Form,3,0,outro,NULL,nativeq,yes
1604281365,b629cab85878712ab84bccadf565e522,Form,3,0,outro,NULL,_REACTION_TIME_,12207
#
# Results on Monday November 02 2020 01:49:57 UTC.
# USER AGENT: Mozilla/5.0 (Windows NT 10.0; Win64; x64) AppleWebKit/537.36 (KHTML, like Gecko) Chrome/86.0.4240.111 Safari/537.36
# Design number was non-random = 0
#
# Columns below this comment are as follows:
# 1. Time results were received.
# 2. MD5 hash of participant's IP address.
# 3. Controller name.
# 4. Item number.
# 5. Element number.
# 6. Type.
# 7. Group.
# 8. Field name.
# 9. Field value.
1604281797,7f73ac7bb7c7d335690c4b224647d8bd,Form,1,0,intro,NULL,TurkID,A3JC9VPPTHNKVL
1604281797,7f73ac7bb7c7d335690c4b224647d8bd,Form,1,0,intro,NULL,_REACTION_TIME_,25973
1604281797,7f73ac7bb7c7d335690c4b224647d8bd,Form,2,0,instructions,NULL,_REACTION_TIME_,16013
1604281797,7f73ac7bb7c7d335690c4b224647d8bd,RangeForm,4,0,practice1,NULL,minus_trigger,100
1604281797,7f73ac7bb7c7d335690c4b224647d8bd,RangeForm,4,0,practice1,NULL,plus_trigger,1
1604281797,7f73ac7bb7c7d335690c4b224647d8bd,RangeForm,5,0,practice1,NULL,plus_trigger,100
1604281797,7f73ac7bb7c7d335690c4b224647d8bd,RangeForm,5,0,practice1,NULL,minus_trigger,100
1604281797,7f73ac7bb7c7d335690c4b224647d8bd,RangeForm,6,0,practice1,NULL,plus_trigger,1
1604281797,7f73ac7bb7c7d335690c4b224647d8bd,RangeForm,6,0,practice1,NULL,minus_trigger,100
1604281797,7f73ac7bb7c7d335690c4b224647d8bd,RangeForm,34,0,target_too_base_neutral,13,minus_trigger,100
1604281797,7f73ac7bb7c7d335690c4b224647d8bd,RangeForm,34,0,target_too_base_neutral,13,plus_trigger,1
1604281797,7f73ac7bb7c7d335690c4b224647d8bd,RangeForm,115,0,target_back_base_positive,54,plus_trigger,1
1604281797,7f73ac7bb7c7d335690c4b224647d8bd,RangeForm,115,0,target_back_base_positive,54,minus_trigger,100
1604281797,7f73ac7bb7c7d335690c4b224647d8bd,RangeForm,27,0,target_too_base_positive,10,plus_trigger,100
1604281797,7f73ac7bb7c7d335690c4b224647d8bd,RangeForm,27,0,target_too_base_positive,10,minus_trigger,1
1604281797,7f73ac7bb7c7d335690c4b224647d8bd,RangeForm,11,0,target_only_base_positive,2,minus_trigger,1
1604281797,7f73ac7bb7c7d335690c4b224647d8bd,RangeForm,11,0,target_only_base_positive,2,plus_trigger,100
1604281797,7f73ac7bb7c7d335690c4b224647d8bd,RangeForm,15,0,target_only_base_positive,4,minus_trigger,1
1604281797,7f73ac7bb7c7d335690c4b224647d8bd,RangeForm,15,0,target_only_base_positive,4,plus_trigger,100
1604281797,7f73ac7bb7c7d335690c4b224647d8bd,RangeForm,82,0,target_definite_base_neutral,37,plus_trigger,1
1604281797,7f73ac7bb7c7d335690c4b224647d8bd,RangeForm,82,0,target_definite_base_neutral,37,minus_trigger,100
1604281797,7f73ac7bb7c7d335690c4b224647d8bd,RangeForm,86,0,target_definite_base_neutral,39,minus_trigger,100
1604281797,7f73ac7bb7c7d335690c4b224647d8bd,RangeForm,86,0,target_definite_base_neutral,39,plus_trigger,1
1604281797,7f73ac7bb7c7d335690c4b224647d8bd,RangeForm,78,0,target_definite_base_neutral,35,minus_trigger,100
1604281797,7f73ac7bb7c7d335690c4b224647d8bd,RangeForm,78,0,target_definite_base_neutral,35,plus_trigger,1
1604281797,7f73ac7bb7c7d335690c4b224647d8bd,RangeForm,102,0,target_again_base_neutral,47,plus_trigger,1
1604281797,7f73ac7bb7c7d335690c4b224647d8bd,RangeForm,102,0,target_again_base_neutral,47,minus_trigger,100
1604281797,7f73ac7bb7c7d335690c4b224647d8bd,RangeForm,19,0,target_even_base_positive,6,minus_trigger,1
1604281797,7f73ac7bb7c7d335690c4b224647d8bd,RangeForm,19,0,target_even_base_positive,6,plus_trigger,100
1604281797,7f73ac7bb7c7d335690c4b224647d8bd,RangeForm,87,0,target_question_base_positive,40,minus_trigger,1
1604281797,7f73ac7bb7c7d335690c4b224647d8bd,RangeForm,87,0,target_question_base_positive,40,plus_trigger,100
1604281797,7f73ac7bb7c7d335690c4b224647d8bd,RangeForm,47,0,target_embedding_base_positive,20,minus_trigger,100
1604281797,7f73ac7bb7c7d335690c4b224647d8bd,RangeForm,47,0,target_embedding_base_positive,20,plus_trigger,1
1604281797,7f73ac7bb7c7d335690c4b224647d8bd,RangeForm,66,0,target_accomplishment_base_neutral,29,plus_trigger,100
1604281797,7f73ac7bb7c7d335690c4b224647d8bd,RangeForm,66,0,target_accomplishment_base_neutral,29,minus_trigger,100
1604281797,7f73ac7bb7c7d335690c4b224647d8bd,RangeForm,35,0,target_too_base_positive,14,minus_trigger,1
1604281797,7f73ac7bb7c7d335690c4b224647d8bd,RangeForm,35,0,target_too_base_positive,14,plus_trigger,100
1604281797,7f73ac7bb7c7d335690c4b224647d8bd,RangeForm,79,0,target_definite_base_positive,36,plus_trigger,100
1604281797,7f73ac7bb7c7d335690c4b224647d8bd,RangeForm,79,0,target_definite_base_positive,36,minus_trigger,1
1604281797,7f73ac7bb7c7d335690c4b224647d8bd,RangeForm,55,0,target_embedding_base_positive,24,plus_trigger,100
1604281797,7f73ac7bb7c7d335690c4b224647d8bd,RangeForm,55,0,target_embedding_base_positive,24,minus_trigger,1
1604281797,7f73ac7bb7c7d335690c4b224647d8bd,RangeForm,23,0,target_even_base_positive,8,minus_trigger,1
1604281797,7f73ac7bb7c7d335690c4b224647d8bd,RangeForm,23,0,target_even_base_positive,8,plus_trigger,100
1604281797,7f73ac7bb7c7d335690c4b224647d8bd,RangeForm,26,0,target_even_base_neutral,9,minus_trigger,100
1604281797,7f73ac7bb7c7d335690c4b224647d8bd,RangeForm,26,0,target_even_base_neutral,9,plus_trigger,1
1604281797,7f73ac7bb7c7d335690c4b224647d8bd,RangeForm,70,0,target_possessive_base_neutral,31,plus_trigger,100
1604281797,7f73ac7bb7c7d335690c4b224647d8bd,RangeForm,70,0,target_possessive_base_neutral,31,minus_trigger,1
1604281797,7f73ac7bb7c7d335690c4b224647d8bd,RangeForm,22,0,target_even_base_neutral,7,minus_trigger,100
1604281797,7f73ac7bb7c7d335690c4b224647d8bd,RangeForm,22,0,target_even_base_neutral,7,plus_trigger,1
1604281797,7f73ac7bb7c7d335690c4b224647d8bd,RangeForm,122,0,target_stateChange_base_neutral,57,minus_trigger,100
1604281797,7f73ac7bb7c7d335690c4b224647d8bd,RangeForm,122,0,target_stateChange_base_neutral,57,plus_trigger,67
1604281797,7f73ac7bb7c7d335690c4b224647d8bd,RangeForm,130,0,target_still_base_neutral,61,plus_trigger,1
1604281797,7f73ac7bb7c7d335690c4b224647d8bd,RangeForm,130,0,target_still_base_neutral,61,minus_trigger,100
1604281797,7f73ac7bb7c7d335690c4b224647d8bd,RangeForm,74,0,target_possessive_base_neutral,33,minus_trigger,1
1604281797,7f73ac7bb7c7d335690c4b224647d8bd,RangeForm,74,0,target_possessive_base_neutral,33,plus_trigger,100
1604281797,7f73ac7bb7c7d335690c4b224647d8bd,RangeForm,30,0,target_too_base_neutral,11,minus_trigger,100
1604281797,7f73ac7bb7c7d335690c4b224647d8bd,RangeForm,30,0,target_too_base_neutral,11,plus_trigger,1
1604281797,7f73ac7bb7c7d335690c4b224647d8bd,RangeForm,10,0,target_only_base_neutral,1,plus_trigger,1
1604281797,7f73ac7bb7c7d335690c4b224647d8bd,RangeForm,10,0,target_only_base_neutral,1,minus_trigger,100
1604281797,7f73ac7bb7c7d335690c4b224647d8bd,RangeForm,127,0,target_still_base_positive,60,plus_trigger,100
1604281797,7f73ac7bb7c7d335690c4b224647d8bd,RangeForm,127,0,target_still_base_positive,60,minus_trigger,1
1604281797,7f73ac7bb7c7d335690c4b224647d8bd,RangeForm,50,0,target_embedding_base_neutral,21,plus_trigger,100
1604281797,7f73ac7bb7c7d335690c4b224647d8bd,RangeForm,50,0,target_embedding_base_neutral,21,minus_trigger,61
1604281797,7f73ac7bb7c7d335690c4b224647d8bd,RangeForm,18,0,target_even_base_neutral,5,plus_trigger,1
1604281797,7f73ac7bb7c7d335690c4b224647d8bd,RangeForm,18,0,target_even_base_neutral,5,minus_trigger,1
1604281797,7f73ac7bb7c7d335690c4b224647d8bd,RangeForm,111,0,target_back_base_positive,52,plus_trigger,100
1604281797,7f73ac7bb7c7d335690c4b224647d8bd,RangeForm,111,0,target_back_base_positive,52,minus_trigger,1
1604281797,7f73ac7bb7c7d335690c4b224647d8bd,RangeForm,31,0,target_too_base_positive,12,plus_trigger,100
1604281797,7f73ac7bb7c7d335690c4b224647d8bd,RangeForm,31,0,target_too_base_positive,12,minus_trigger,1
1604281797,7f73ac7bb7c7d335690c4b224647d8bd,RangeForm,99,0,target_again_base_positive,46,minus_trigger,1
1604281797,7f73ac7bb7c7d335690c4b224647d8bd,RangeForm,99,0,target_again_base_positive,46,plus_trigger,100
1604281797,7f73ac7bb7c7d335690c4b224647d8bd,RangeForm,67,0,target_possessive_base_positive,30,plus_trigger,100
1604281797,7f73ac7bb7c7d335690c4b224647d8bd,RangeForm,67,0,target_possessive_base_positive,30,minus_trigger,1
1604281797,7f73ac7bb7c7d335690c4b224647d8bd,RangeForm,43,0,target_cleft_base_positive,18,plus_trigger,100
1604281797,7f73ac7bb7c7d335690c4b224647d8bd,RangeForm,43,0,target_cleft_base_positive,18,minus_trigger,1
1604281797,7f73ac7bb7c7d335690c4b224647d8bd,RangeForm,106,0,target_again_base_neutral,49,minus_trigger,100
1604281797,7f73ac7bb7c7d335690c4b224647d8bd,RangeForm,106,0,target_again_base_neutral,49,plus_trigger,1
1604281797,7f73ac7bb7c7d335690c4b224647d8bd,RangeForm,134,0,target_still_base_neutral,63,minus_trigger,100
1604281797,7f73ac7bb7c7d335690c4b224647d8bd,RangeForm,134,0,target_still_base_neutral,63,plus_trigger,1
1604281797,7f73ac7bb7c7d335690c4b224647d8bd,RangeForm,98,0,target_again_base_neutral,45,plus_trigger,1
1604281797,7f73ac7bb7c7d335690c4b224647d8bd,RangeForm,98,0,target_again_base_neutral,45,minus_trigger,100
1604281797,7f73ac7bb7c7d335690c4b224647d8bd,RangeForm,38,0,target_cleft_base_neutral,15,plus_trigger,1
1604281797,7f73ac7bb7c7d335690c4b224647d8bd,RangeForm,38,0,target_cleft_base_neutral,15,minus_trigger,100
1604281797,7f73ac7bb7c7d335690c4b224647d8bd,RangeForm,42,0,target_cleft_base_neutral,17,minus_trigger,100
1604281797,7f73ac7bb7c7d335690c4b224647d8bd,RangeForm,42,0,target_cleft_base_neutral,17,plus_trigger,1
1604281797,7f73ac7bb7c7d335690c4b224647d8bd,RangeForm,94,0,target_question_base_neutral,43,minus_trigger,1
1604281797,7f73ac7bb7c7d335690c4b224647d8bd,RangeForm,94,0,target_question_base_neutral,43,plus_trigger,100
1604281797,7f73ac7bb7c7d335690c4b224647d8bd,RangeForm,39,0,target_cleft_base_positive,16,plus_trigger,1
1604281797,7f73ac7bb7c7d335690c4b224647d8bd,RangeForm,39,0,target_cleft_base_positive,16,minus_trigger,100
1604281797,7f73ac7bb7c7d335690c4b224647d8bd,RangeForm,95,0,target_question_base_positive,44,plus_trigger,100
1604281797,7f73ac7bb7c7d335690c4b224647d8bd,RangeForm,95,0,target_question_base_positive,44,minus_trigger,1
1604281797,7f73ac7bb7c7d335690c4b224647d8bd,RangeForm,63,0,target_accomplishment_base_positive,28,minus_trigger,100
1604281797,7f73ac7bb7c7d335690c4b224647d8bd,RangeForm,63,0,target_accomplishment_base_positive,28,plus_trigger,1
1604281797,7f73ac7bb7c7d335690c4b224647d8bd,RangeForm,114,0,target_back_base_neutral,53,minus_trigger,100
1604281797,7f73ac7bb7c7d335690c4b224647d8bd,RangeForm,114,0,target_back_base_neutral,53,plus_trigger,1
1604281797,7f73ac7bb7c7d335690c4b224647d8bd,RangeForm,135,0,target_still_base_positive,64,plus_trigger,100
1604281797,7f73ac7bb7c7d335690c4b224647d8bd,RangeForm,135,0,target_still_base_positive,64,minus_trigger,1
1604281797,7f73ac7bb7c7d335690c4b224647d8bd,RangeForm,59,0,target_accomplishment_base_positive,26,plus_trigger,100
1604281797,7f73ac7bb7c7d335690c4b224647d8bd,RangeForm,59,0,target_accomplishment_base_positive,26,minus_trigger,1
1604281797,7f73ac7bb7c7d335690c4b224647d8bd,RangeForm,58,0,target_accomplishment_base_neutral,25,minus_trigger,63
1604281797,7f73ac7bb7c7d335690c4b224647d8bd,RangeForm,58,0,target_accomplishment_base_neutral,25,plus_trigger,100
1604281797,7f73ac7bb7c7d335690c4b224647d8bd,RangeForm,119,0,target_stateChange_base_positive,56,plus_trigger,1
1604281797,7f73ac7bb7c7d335690c4b224647d8bd,RangeForm,119,0,target_stateChange_base_positive,56,minus_trigger,100
1604281797,7f73ac7bb7c7d335690c4b224647d8bd,RangeForm,51,0,target_embedding_base_positive,22,minus_trigger,1
1604281797,7f73ac7bb7c7d335690c4b224647d8bd,RangeForm,51,0,target_embedding_base_positive,22,plus_trigger,100
1604281797,7f73ac7bb7c7d335690c4b224647d8bd,RangeForm,90,0,target_question_base_neutral,41,plus_trigger,100
1604281797,7f73ac7bb7c7d335690c4b224647d8bd,RangeForm,90,0,target_question_base_neutral,41,minus_trigger,1
1604281797,7f73ac7bb7c7d335690c4b224647d8bd,RangeForm,91,0,target_question_base_positive,42,minus_trigger,1
1604281797,7f73ac7bb7c7d335690c4b224647d8bd,RangeForm,91,0,target_question_base_positive,42,plus_trigger,100
1604281797,7f73ac7bb7c7d335690c4b224647d8bd,RangeForm,118,0,target_stateChange_base_neutral,55,minus_trigger,100
1604281797,7f73ac7bb7c7d335690c4b224647d8bd,RangeForm,118,0,target_stateChange_base_neutral,55,plus_trigger,74
1604281797,7f73ac7bb7c7d335690c4b224647d8bd,RangeForm,62,0,target_accomplishment_base_neutral,27,plus_trigger,66
1604281797,7f73ac7bb7c7d335690c4b224647d8bd,RangeForm,62,0,target_accomplishment_base_neutral,27,minus_trigger,100
1604281797,7f73ac7bb7c7d335690c4b224647d8bd,RangeForm,110,0,target_back_base_neutral,51,minus_trigger,100
1604281797,7f73ac7bb7c7d335690c4b224647d8bd,RangeForm,110,0,target_back_base_neutral,51,plus_trigger,1
1604281797,7f73ac7bb7c7d335690c4b224647d8bd,RangeForm,71,0,target_possessive_base_positive,32,minus_trigger,1
1604281797,7f73ac7bb7c7d335690c4b224647d8bd,RangeForm,71,0,target_possessive_base_positive,32,plus_trigger,100
1604281797,7f73ac7bb7c7d335690c4b224647d8bd,RangeForm,14,0,target_only_base_neutral,3,minus_trigger,100
1604281797,7f73ac7bb7c7d335690c4b224647d8bd,RangeForm,14,0,target_only_base_neutral,3,plus_trigger,1
1604281797,7f73ac7bb7c7d335690c4b224647d8bd,RangeForm,123,0,target_stateChange_base_positive,58,minus_trigger,1
1604281797,7f73ac7bb7c7d335690c4b224647d8bd,RangeForm,123,0,target_stateChange_base_positive,58,plus_trigger,100
1604281797,7f73ac7bb7c7d335690c4b224647d8bd,RangeForm,131,0,target_still_base_positive,62,minus_trigger,1
1604281797,7f73ac7bb7c7d335690c4b224647d8bd,RangeForm,131,0,target_still_base_positive,62,plus_trigger,100
1604281797,7f73ac7bb7c7d335690c4b224647d8bd,RangeForm,126,0,target_stateChange_base_neutral,59,minus_trigger,100
1604281797,7f73ac7bb7c7d335690c4b224647d8bd,RangeForm,126,0,target_stateChange_base_neutral,59,plus_trigger,1
1604281797,7f73ac7bb7c7d335690c4b224647d8bd,RangeForm,7,0,target_only_base_positive,0,minus_trigger,1
1604281797,7f73ac7bb7c7d335690c4b224647d8bd,RangeForm,7,0,target_only_base_positive,0,plus_trigger,100
1604281797,7f73ac7bb7c7d335690c4b224647d8bd,RangeForm,103,0,target_again_base_positive,48,plus_trigger,100
1604281797,7f73ac7bb7c7d335690c4b224647d8bd,RangeForm,103,0,target_again_base_positive,48,minus_trigger,1
1604281797,7f73ac7bb7c7d335690c4b224647d8bd,RangeForm,83,0,target_definite_base_positive,38,minus_trigger,1
1604281797,7f73ac7bb7c7d335690c4b224647d8bd,RangeForm,83,0,target_definite_base_positive,38,plus_trigger,100
1604281797,7f73ac7bb7c7d335690c4b224647d8bd,RangeForm,46,0,target_cleft_base_neutral,19,minus_trigger,100
1604281797,7f73ac7bb7c7d335690c4b224647d8bd,RangeForm,46,0,target_cleft_base_neutral,19,plus_trigger,1
1604281797,7f73ac7bb7c7d335690c4b224647d8bd,RangeForm,75,0,target_possessive_base_positive,34,plus_trigger,100
1604281797,7f73ac7bb7c7d335690c4b224647d8bd,RangeForm,75,0,target_possessive_base_positive,34,minus_trigger,1
1604281797,7f73ac7bb7c7d335690c4b224647d8bd,RangeForm,54,0,target_embedding_base_neutral,23,minus_trigger,1
1604281797,7f73ac7bb7c7d335690c4b224647d8bd,RangeForm,54,0,target_embedding_base_neutral,23,plus_trigger,100
1604281797,7f73ac7bb7c7d335690c4b224647d8bd,RangeForm,107,0,target_back_base_positive,50,minus_trigger,1
1604281797,7f73ac7bb7c7d335690c4b224647d8bd,RangeForm,107,0,target_back_base_positive,50,plus_trigger,100
1604281797,7f73ac7bb7c7d335690c4b224647d8bd,Form,3,0,outro,NULL,review,Is there anything you would like us to know about the survey?%0A
1604281797,7f73ac7bb7c7d335690c4b224647d8bd,Form,3,0,outro,NULL,nativeq,yes
1604281797,7f73ac7bb7c7d335690c4b224647d8bd,Form,3,0,outro,NULL,_REACTION_TIME_,6651
#
# Results on Monday November 02 2020 01:54:33 UTC.
# USER AGENT: Mozilla/5.0 (Windows NT 10.0; Win64; x64) AppleWebKit/537.36 (KHTML, like Gecko) Chrome/86.0.4240.111 Safari/537.36
# Design number was non-random = 0
#
# Columns below this comment are as follows:
# 1. Time results were received.
# 2. MD5 hash of participant's IP address.
# 3. Controller name.
# 4. Item number.
# 5. Element number.
# 6. Type.
# 7. Group.
# 8. Field name.
# 9. Field value.
1604282073,71caa8df00a71f521dde213b45321334,Form,1,0,intro,NULL,TurkID,ARWN6TT8EWCFJ
1604282073,71caa8df00a71f521dde213b45321334,Form,1,0,intro,NULL,_REACTION_TIME_,9699
1604282073,71caa8df00a71f521dde213b45321334,Form,2,0,instructions,NULL,_REACTION_TIME_,1233
1604282073,71caa8df00a71f521dde213b45321334,RangeForm,4,0,practice1,NULL,minus_trigger,92
1604282073,71caa8df00a71f521dde213b45321334,RangeForm,4,0,practice1,NULL,plus_trigger,58
1604282073,71caa8df00a71f521dde213b45321334,RangeForm,5,0,practice1,NULL,plus_trigger,80
1604282073,71caa8df00a71f521dde213b45321334,RangeForm,5,0,practice1,NULL,minus_trigger,90
1604282073,71caa8df00a71f521dde213b45321334,RangeForm,6,0,practice1,NULL,plus_trigger,23
1604282073,71caa8df00a71f521dde213b45321334,RangeForm,6,0,practice1,NULL,minus_trigger,23
1604282073,71caa8df00a71f521dde213b45321334,RangeForm,82,0,target_definite_base_neutral,37,plus_trigger,78
1604282073,71caa8df00a71f521dde213b45321334,RangeForm,82,0,target_definite_base_neutral,37,minus_trigger,100
1604282073,71caa8df00a71f521dde213b45321334,RangeForm,59,0,target_accomplishment_base_positive,26,plus_trigger,63
1604282073,71caa8df00a71f521dde213b45321334,RangeForm,59,0,target_accomplishment_base_positive,26,minus_trigger,81
1604282073,71caa8df00a71f521dde213b45321334,RangeForm,102,0,target_again_base_neutral,47,minus_trigger,65
1604282073,71caa8df00a71f521dde213b45321334,RangeForm,102,0,target_again_base_neutral,47,plus_trigger,81
1604282073,71caa8df00a71f521dde213b45321334,RangeForm,95,0,target_question_base_positive,44,plus_trigger,85
1604282073,71caa8df00a71f521dde213b45321334,RangeForm,95,0,target_question_base_positive,44,minus_trigger,99
1604282073,71caa8df00a71f521dde213b45321334,RangeForm,58,0,target_accomplishment_base_neutral,25,minus_trigger,59
1604282073,71caa8df00a71f521dde213b45321334,RangeForm,58,0,target_accomplishment_base_neutral,25,plus_trigger,83
1604282073,71caa8df00a71f521dde213b45321334,RangeForm,86,0,target_definite_base_neutral,39,plus_trigger,1
1604282073,71caa8df00a71f521dde213b45321334,RangeForm,86,0,target_definite_base_neutral,39,minus_trigger,28
1604282073,71caa8df00a71f521dde213b45321334,RangeForm,107,0,target_back_base_positive,50,plus_trigger,14
1604282073,71caa8df00a71f521dde213b45321334,RangeForm,107,0,target_back_base_positive,50,minus_trigger,31
1604282073,71caa8df00a71f521dde213b45321334,RangeForm,135,0,target_still_base_positive,64,plus_trigger,67
1604282073,71caa8df00a71f521dde213b45321334,RangeForm,135,0,target_still_base_positive,64,minus_trigger,82
1604282073,71caa8df00a71f521dde213b45321334,RangeForm,38,0,target_cleft_base_neutral,15,plus_trigger,72
1604282073,71caa8df00a71f521dde213b45321334,RangeForm,38,0,target_cleft_base_neutral,15,minus_trigger,83
1604282073,71caa8df00a71f521dde213b45321334,RangeForm,63,0,target_accomplishment_base_positive,28,minus_trigger,68
1604282073,71caa8df00a71f521dde213b45321334,RangeForm,63,0,target_accomplishment_base_positive,28,plus_trigger,81
1604282073,71caa8df00a71f521dde213b45321334,RangeForm,14,0,target_only_base_neutral,3,minus_trigger,69
1604282073,71caa8df00a71f521dde213b45321334,RangeForm,14,0,target_only_base_neutral,3,plus_trigger,87
1604282073,71caa8df00a71f521dde213b45321334,RangeForm,79,0,target_definite_base_positive,36,plus_trigger,67
1604282073,71caa8df00a71f521dde213b45321334,RangeForm,79,0,target_definite_base_positive,36,minus_trigger,82
1604282073,71caa8df00a71f521dde213b45321334,RangeForm,98,0,target_again_base_neutral,45,plus_trigger,31
1604282073,71caa8df00a71f521dde213b45321334,RangeForm,98,0,target_again_base_neutral,45,minus_trigger,19
1604282073,71caa8df00a71f521dde213b45321334,RangeForm,99,0,target_again_base_positive,46,plus_trigger,29
1604282073,71caa8df00a71f521dde213b45321334,RangeForm,99,0,target_again_base_positive,46,minus_trigger,21
1604282073,71caa8df00a71f521dde213b45321334,RangeForm,39,0,target_cleft_base_positive,16,minus_trigger,71
1604282073,71caa8df00a71f521dde213b45321334,RangeForm,39,0,target_cleft_base_positive,16,plus_trigger,89
1604282073,71caa8df00a71f521dde213b45321334,RangeForm,30,0,target_too_base_neutral,11,plus_trigger,67
1604282073,71caa8df00a71f521dde213b45321334,RangeForm,30,0,target_too_base_neutral,11,minus_trigger,65
1604282073,71caa8df00a71f521dde213b45321334,RangeForm,7,0,target_only_base_positive,0,plus_trigger,75
1604282073,71caa8df00a71f521dde213b45321334,RangeForm,7,0,target_only_base_positive,0,minus_trigger,97
1604282073,71caa8df00a71f521dde213b45321334,RangeForm,90,0,target_question_base_neutral,41,plus_trigger,80
1604282073,71caa8df00a71f521dde213b45321334,RangeForm,90,0,target_question_base_neutral,41,minus_trigger,95
1604282073,71caa8df00a71f521dde213b45321334,RangeForm,26,0,target_even_base_neutral,9,minus_trigger,25
1604282073,71caa8df00a71f521dde213b45321334,RangeForm,26,0,target_even_base_neutral,9,plus_trigger,12
1604282073,71caa8df00a71f521dde213b45321334,RangeForm,70,0,target_possessive_base_neutral,31,plus_trigger,23
1604282073,71caa8df00a71f521dde213b45321334,RangeForm,70,0,target_possessive_base_neutral,31,minus_trigger,31
1604282073,71caa8df00a71f521dde213b45321334,RangeForm,126,0,target_stateChange_base_neutral,59,minus_trigger,99
1604282073,71caa8df00a71f521dde213b45321334,RangeForm,126,0,target_stateChange_base_neutral,59,plus_trigger,77
1604282073,71caa8df00a71f521dde213b45321334,RangeForm,31,0,target_too_base_positive,12,plus_trigger,67
1604282073,71caa8df00a71f521dde213b45321334,RangeForm,31,0,target_too_base_positive,12,minus_trigger,85
1604282073,71caa8df00a71f521dde213b45321334,RangeForm,46,0,target_cleft_base_neutral,19,plus_trigger,56
1604282073,71caa8df00a71f521dde213b45321334,RangeForm,46,0,target_cleft_base_neutral,19,minus_trigger,84
1604282073,71caa8df00a71f521dde213b45321334,RangeForm,54,0,target_embedding_base_neutral,23,plus_trigger,18
1604282073,71caa8df00a71f521dde213b45321334,RangeForm,54,0,target_embedding_base_neutral,23,minus_trigger,25
1604282073,71caa8df00a71f521dde213b45321334,RangeForm,62,0,target_accomplishment_base_neutral,27,plus_trigger,43
1604282073,71caa8df00a71f521dde213b45321334,RangeForm,62,0,target_accomplishment_base_neutral,27,minus_trigger,24
1604282073,71caa8df00a71f521dde213b45321334,RangeForm,23,0,target_even_base_positive,8,plus_trigger,19
1604282073,71caa8df00a71f521dde213b45321334,RangeForm,23,0,target_even_base_positive,8,minus_trigger,32
1604282073,71caa8df00a71f521dde213b45321334,RangeForm,103,0,target_again_base_positive,48,minus_trigger,28
1604282073,71caa8df00a71f521dde213b45321334,RangeForm,103,0,target_again_base_positive,48,plus_trigger,22
1604282073,71caa8df00a71f521dde213b45321334,RangeForm,78,0,target_definite_base_neutral,35,plus_trigger,67
1604282073,71caa8df00a71f521dde213b45321334,RangeForm,78,0,target_definite_base_neutral,35,minus_trigger,90
1604282073,71caa8df00a71f521dde213b45321334,RangeForm,66,0,target_accomplishment_base_neutral,29,plus_trigger,61
1604282073,71caa8df00a71f521dde213b45321334,RangeForm,66,0,target_accomplishment_base_neutral,29,minus_trigger,78
1604282073,71caa8df00a71f521dde213b45321334,RangeForm,131,0,target_still_base_positive,62,plus_trigger,77
1604282073,71caa8df00a71f521dde213b45321334,RangeForm,131,0,target_still_base_positive,62,minus_trigger,91
1604282073,71caa8df00a71f521dde213b45321334,RangeForm,127,0,target_still_base_positive,60,minus_trigger,72
1604282073,71caa8df00a71f521dde213b45321334,RangeForm,127,0,target_still_base_positive,60,plus_trigger,81
1604282073,71caa8df00a71f521dde213b45321334,RangeForm,115,0,target_back_base_positive,54,minus_trigger,56
1604282073,71caa8df00a71f521dde213b45321334,RangeForm,115,0,target_back_base_positive,54,plus_trigger,70
1604282073,71caa8df00a71f521dde213b45321334,RangeForm,18,0,target_even_base_neutral,5,minus_trigger,75
1604282073,71caa8df00a71f521dde213b45321334,RangeForm,18,0,target_even_base_neutral,5,plus_trigger,100
1604282073,71caa8df00a71f521dde213b45321334,RangeForm,43,0,target_cleft_base_positive,18,minus_trigger,78
1604282073,71caa8df00a71f521dde213b45321334,RangeForm,43,0,target_cleft_base_positive,18,plus_trigger,94
1604282073,71caa8df00a71f521dde213b45321334,RangeForm,83,0,target_definite_base_positive,38,minus_trigger,83
1604282073,71caa8df00a71f521dde213b45321334,RangeForm,83,0,target_definite_base_positive,38,plus_trigger,77
1604282073,71caa8df00a71f521dde213b45321334,RangeForm,74,0,target_possessive_base_neutral,33,minus_trigger,69
1604282073,71caa8df00a71f521dde213b45321334,RangeForm,74,0,target_possessive_base_neutral,33,plus_trigger,94
1604282073,71caa8df00a71f521dde213b45321334,RangeForm,42,0,target_cleft_base_neutral,17,minus_trigger,85
1604282073,71caa8df00a71f521dde213b45321334,RangeForm,42,0,target_cleft_base_neutral,17,plus_trigger,89
1604282073,71caa8df00a71f521dde213b45321334,RangeForm,75,0,target_possessive_base_positive,34,plus_trigger,68
1604282073,71caa8df00a71f521dde213b45321334,RangeForm,75,0,target_possessive_base_positive,34,minus_trigger,88
1604282073,71caa8df00a71f521dde213b45321334,RangeForm,50,0,target_embedding_base_neutral,21,minus_trigger,66
1604282073,71caa8df00a71f521dde213b45321334,RangeForm,50,0,target_embedding_base_neutral,21,plus_trigger,89
1604282073,71caa8df00a71f521dde213b45321334,RangeForm,22,0,target_even_base_neutral,7,plus_trigger,34
1604282073,71caa8df00a71f521dde213b45321334,RangeForm,22,0,target_even_base_neutral,7,minus_trigger,33
1604282073,71caa8df00a71f521dde213b45321334,RangeForm,15,0,target_only_base_positive,4,plus_trigger,27
1604282073,71caa8df00a71f521dde213b45321334,RangeForm,15,0,target_only_base_positive,4,minus_trigger,4
1604282073,71caa8df00a71f521dde213b45321334,RangeForm,110,0,target_back_base_neutral,51,plus_trigger,75
1604282073,71caa8df00a71f521dde213b45321334,RangeForm,110,0,target_back_base_neutral,51,minus_trigger,71
1604282073,71caa8df00a71f521dde213b45321334,RangeForm,123,0,target_stateChange_base_positive,58,plus_trigger,75
1604282073,71caa8df00a71f521dde213b45321334,RangeForm,123,0,target_stateChange_base_positive,58,minus_trigger,87
1604282073,71caa8df00a71f521dde213b45321334,RangeForm,10,0,target_only_base_neutral,1,plus_trigger,22
1604282073,71caa8df00a71f521dde213b45321334,RangeForm,10,0,target_only_base_neutral,1,minus_trigger,7
1604282073,71caa8df00a71f521dde213b45321334,RangeForm,130,0,target_still_base_neutral,61,plus_trigger,77
1604282073,71caa8df00a71f521dde213b45321334,RangeForm,130,0,target_still_base_neutral,61,minus_trigger,90
1604282073,71caa8df00a71f521dde213b45321334,RangeForm,71,0,target_possessive_base_positive,32,minus_trigger,68
1604282073,71caa8df00a71f521dde213b45321334,RangeForm,71,0,target_possessive_base_positive,32,plus_trigger,86
1604282073,71caa8df00a71f521dde213b45321334,RangeForm,55,0,target_embedding_base_positive,24,minus_trigger,68
1604282073,71caa8df00a71f521dde213b45321334,RangeForm,55,0,target_embedding_base_positive,24,plus_trigger,88
1604282073,71caa8df00a71f521dde213b45321334,RangeForm,87,0,target_question_base_positive,40,plus_trigger,35
1604282073,71caa8df00a71f521dde213b45321334,RangeForm,87,0,target_question_base_positive,40,minus_trigger,74
1604282073,71caa8df00a71f521dde213b45321334,RangeForm,111,0,target_back_base_positive,52,plus_trigger,69
1604282073,71caa8df00a71f521dde213b45321334,RangeForm,111,0,target_back_base_positive,52,minus_trigger,96
1604282073,71caa8df00a71f521dde213b45321334,RangeForm,35,0,target_too_base_positive,14,minus_trigger,68
1604282073,71caa8df00a71f521dde213b45321334,RangeForm,35,0,target_too_base_positive,14,plus_trigger,82
1604282073,71caa8df00a71f521dde213b45321334,RangeForm,91,0,target_question_base_positive,42,plus_trigger,9
1604282073,71caa8df00a71f521dde213b45321334,RangeForm,91,0,target_question_base_positive,42,minus_trigger,99
1604282073,71caa8df00a71f521dde213b45321334,RangeForm,34,0,target_too_base_neutral,13,minus_trigger,20
1604282073,71caa8df00a71f521dde213b45321334,RangeForm,34,0,target_too_base_neutral,13,plus_trigger,6
1604282073,71caa8df00a71f521dde213b45321334,RangeForm,27,0,target_too_base_positive,10,minus_trigger,77
1604282073,71caa8df00a71f521dde213b45321334,RangeForm,27,0,target_too_base_positive,10,plus_trigger,91
1604282073,71caa8df00a71f521dde213b45321334,RangeForm,134,0,target_still_base_neutral,63,plus_trigger,76
1604282073,71caa8df00a71f521dde213b45321334,RangeForm,134,0,target_still_base_neutral,63,minus_trigger,88
1604282073,71caa8df00a71f521dde213b45321334,RangeForm,118,0,target_stateChange_base_neutral,55,plus_trigger,54
1604282073,71caa8df00a71f521dde213b45321334,RangeForm,118,0,target_stateChange_base_neutral,55,minus_trigger,75
1604282073,71caa8df00a71f521dde213b45321334,RangeForm,114,0,target_back_base_neutral,53,minus_trigger,22
1604282073,71caa8df00a71f521dde213b45321334,RangeForm,114,0,target_back_base_neutral,53,plus_trigger,12
1604282073,71caa8df00a71f521dde213b45321334,RangeForm,106,0,target_again_base_neutral,49,minus_trigger,63
1604282073,71caa8df00a71f521dde213b45321334,RangeForm,106,0,target_again_base_neutral,49,plus_trigger,91
1604282073,71caa8df00a71f521dde213b45321334,RangeForm,119,0,target_stateChange_base_positive,56,plus_trigger,59
1604282073,71caa8df00a71f521dde213b45321334,RangeForm,119,0,target_stateChange_base_positive,56,minus_trigger,96
1604282073,71caa8df00a71f521dde213b45321334,RangeForm,11,0,target_only_base_positive,2,minus_trigger,64
1604282073,71caa8df00a71f521dde213b45321334,RangeForm,11,0,target_only_base_positive,2,plus_trigger,86
1604282073,71caa8df00a71f521dde213b45321334,RangeForm,47,0,target_embedding_base_positive,20,plus_trigger,18
1604282073,71caa8df00a71f521dde213b45321334,RangeForm,47,0,target_embedding_base_positive,20,minus_trigger,7
1604282073,71caa8df00a71f521dde213b45321334,RangeForm,19,0,target_even_base_positive,6,minus_trigger,25
1604282073,71caa8df00a71f521dde213b45321334,RangeForm,19,0,target_even_base_positive,6,plus_trigger,11
1604282073,71caa8df00a71f521dde213b45321334,RangeForm,67,0,target_possessive_base_positive,30,minus_trigger,89
1604282073,71caa8df00a71f521dde213b45321334,RangeForm,67,0,target_possessive_base_positive,30,plus_trigger,83
1604282073,71caa8df00a71f521dde213b45321334,RangeForm,122,0,target_stateChange_base_neutral,57,minus_trigger,39
1604282073,71caa8df00a71f521dde213b45321334,RangeForm,122,0,target_stateChange_base_neutral,57,plus_trigger,31
1604282073,71caa8df00a71f521dde213b45321334,RangeForm,94,0,target_question_base_neutral,43,plus_trigger,94
1604282073,71caa8df00a71f521dde213b45321334,RangeForm,94,0,target_question_base_neutral,43,minus_trigger,97
1604282073,71caa8df00a71f521dde213b45321334,RangeForm,51,0,target_embedding_base_positive,22,minus_trigger,78
1604282073,71caa8df00a71f521dde213b45321334,RangeForm,51,0,target_embedding_base_positive,22,plus_trigger,93
1604282073,71caa8df00a71f521dde213b45321334,Form,3,0,outro,NULL,review,Is there anything you would like us to know about the survey?%0A
1604282073,71caa8df00a71f521dde213b45321334,Form,3,0,outro,NULL,nativeq,yes
1604282073,71caa8df00a71f521dde213b45321334,Form,3,0,outro,NULL,_REACTION_TIME_,832673
#
# Results on Monday November 02 2020 01:56:54 UTC.
# USER AGENT: Mozilla/5.0 (Macintosh; Intel Mac OS X 10_15_6) AppleWebKit/537.36 (KHTML, like Gecko) Chrome/86.0.4240.80 Safari/537.36
# Design number was non-random = 0
#
# Columns below this comment are as follows:
# 1. Time results were received.
# 2. MD5 hash of participant's IP address.
# 3. Controller name.
# 4. Item number.
# 5. Element number.
# 6. Type.
# 7. Group.
# 8. Field name.
# 9. Field value.
1604282214,2c5ab6738227ff59aea9608f00876783,Form,1,0,intro,NULL,TurkID,A2D29YTN8FLONY
1604282214,2c5ab6738227ff59aea9608f00876783,Form,1,0,intro,NULL,_REACTION_TIME_,35225
1604282214,2c5ab6738227ff59aea9608f00876783,Form,2,0,instructions,NULL,_REACTION_TIME_,13602
1604282214,2c5ab6738227ff59aea9608f00876783,RangeForm,4,0,practice1,NULL,minus_trigger,100
1604282214,2c5ab6738227ff59aea9608f00876783,RangeForm,4,0,practice1,NULL,plus_trigger,1
1604282214,2c5ab6738227ff59aea9608f00876783,RangeForm,5,0,practice1,NULL,plus_trigger,100
1604282214,2c5ab6738227ff59aea9608f00876783,RangeForm,5,0,practice1,NULL,minus_trigger,99
1604282214,2c5ab6738227ff59aea9608f00876783,RangeForm,6,0,practice1,NULL,minus_trigger,100
1604282214,2c5ab6738227ff59aea9608f00876783,RangeForm,6,0,practice1,NULL,plus_trigger,1
1604282214,2c5ab6738227ff59aea9608f00876783,RangeForm,115,0,target_back_base_positive,54,plus_trigger,100
1604282214,2c5ab6738227ff59aea9608f00876783,RangeForm,115,0,target_back_base_positive,54,minus_trigger,75
1604282214,2c5ab6738227ff59aea9608f00876783,RangeForm,50,0,target_embedding_base_neutral,21,plus_trigger,98
1604282214,2c5ab6738227ff59aea9608f00876783,RangeForm,50,0,target_embedding_base_neutral,21,minus_trigger,99
1604282214,2c5ab6738227ff59aea9608f00876783,RangeForm,99,0,target_again_base_positive,46,minus_trigger,73
1604282214,2c5ab6738227ff59aea9608f00876783,RangeForm,99,0,target_again_base_positive,46,plus_trigger,100
1604282214,2c5ab6738227ff59aea9608f00876783,RangeForm,134,0,target_still_base_neutral,63,plus_trigger,100
1604282214,2c5ab6738227ff59aea9608f00876783,RangeForm,134,0,target_still_base_neutral,63,minus_trigger,100
1604282214,2c5ab6738227ff59aea9608f00876783,RangeForm,23,0,target_even_base_positive,8,plus_trigger,100
1604282214,2c5ab6738227ff59aea9608f00876783,RangeForm,23,0,target_even_base_positive,8,minus_trigger,88
1604282214,2c5ab6738227ff59aea9608f00876783,RangeForm,86,0,target_definite_base_neutral,39,plus_trigger,100
1604282214,2c5ab6738227ff59aea9608f00876783,RangeForm,86,0,target_definite_base_neutral,39,minus_trigger,100
1604282214,2c5ab6738227ff59aea9608f00876783,RangeForm,27,0,target_too_base_positive,10,minus_trigger,12
1604282214,2c5ab6738227ff59aea9608f00876783,RangeForm,27,0,target_too_base_positive,10,plus_trigger,100
1604282214,2c5ab6738227ff59aea9608f00876783,RangeForm,14,0,target_only_base_neutral,3,plus_trigger,77
1604282214,2c5ab6738227ff59aea9608f00876783,RangeForm,14,0,target_only_base_neutral,3,minus_trigger,99
1604282214,2c5ab6738227ff59aea9608f00876783,RangeForm,110,0,target_back_base_neutral,51,minus_trigger,100
1604282214,2c5ab6738227ff59aea9608f00876783,RangeForm,110,0,target_back_base_neutral,51,plus_trigger,100
1604282214,2c5ab6738227ff59aea9608f00876783,RangeForm,58,0,target_accomplishment_base_neutral,25,plus_trigger,91
1604282214,2c5ab6738227ff59aea9608f00876783,RangeForm,58,0,target_accomplishment_base_neutral,25,minus_trigger,100
1604282214,2c5ab6738227ff59aea9608f00876783,RangeForm,22,0,target_even_base_neutral,7,plus_trigger,11
1604282214,2c5ab6738227ff59aea9608f00876783,RangeForm,22,0,target_even_base_neutral,7,minus_trigger,100
1604282214,2c5ab6738227ff59aea9608f00876783,RangeForm,122,0,target_stateChange_base_neutral,57,plus_trigger,75
1604282214,2c5ab6738227ff59aea9608f00876783,RangeForm,122,0,target_stateChange_base_neutral,57,minus_trigger,100
1604282214,2c5ab6738227ff59aea9608f00876783,RangeForm,87,0,target_question_base_positive,40,plus_trigger,100
1604282214,2c5ab6738227ff59aea9608f00876783,RangeForm,87,0,target_question_base_positive,40,minus_trigger,100
1604282214,2c5ab6738227ff59aea9608f00876783,RangeForm,130,0,target_still_base_neutral,61,plus_trigger,94
1604282214,2c5ab6738227ff59aea9608f00876783,RangeForm,130,0,target_still_base_neutral,61,minus_trigger,100
1604282214,2c5ab6738227ff59aea9608f00876783,RangeForm,91,0,target_question_base_positive,42,plus_trigger,100
1604282214,2c5ab6738227ff59aea9608f00876783,RangeForm,91,0,target_question_base_positive,42,minus_trigger,100
1604282214,2c5ab6738227ff59aea9608f00876783,RangeForm,46,0,target_cleft_base_neutral,19,minus_trigger,100
1604282214,2c5ab6738227ff59aea9608f00876783,RangeForm,46,0,target_cleft_base_neutral,19,plus_trigger,1
1604282214,2c5ab6738227ff59aea9608f00876783,RangeForm,38,0,target_cleft_base_neutral,15,minus_trigger,100
1604282214,2c5ab6738227ff59aea9608f00876783,RangeForm,38,0,target_cleft_base_neutral,15,plus_trigger,1
1604282214,2c5ab6738227ff59aea9608f00876783,RangeForm,35,0,target_too_base_positive,14,plus_trigger,100
1604282214,2c5ab6738227ff59aea9608f00876783,RangeForm,35,0,target_too_base_positive,14,minus_trigger,50
1604282214,2c5ab6738227ff59aea9608f00876783,RangeForm,19,0,target_even_base_positive,6,minus_trigger,90
1604282214,2c5ab6738227ff59aea9608f00876783,RangeForm,19,0,target_even_base_positive,6,plus_trigger,100
1604282214,2c5ab6738227ff59aea9608f00876783,RangeForm,90,0,target_question_base_neutral,41,minus_trigger,100
1604282214,2c5ab6738227ff59aea9608f00876783,RangeForm,90,0,target_question_base_neutral,41,plus_trigger,99
1604282214,2c5ab6738227ff59aea9608f00876783,RangeForm,43,0,target_cleft_base_positive,18,minus_trigger,100
1604282214,2c5ab6738227ff59aea9608f00876783,RangeForm,43,0,target_cleft_base_positive,18,plus_trigger,100
1604282214,2c5ab6738227ff59aea9608f00876783,RangeForm,111,0,target_back_base_positive,52,minus_trigger,76
1604282214,2c5ab6738227ff59aea9608f00876783,RangeForm,111,0,target_back_base_positive,52,plus_trigger,100
1604282214,2c5ab6738227ff59aea9608f00876783,RangeForm,67,0,target_possessive_base_positive,30,plus_trigger,100
1604282214,2c5ab6738227ff59aea9608f00876783,RangeForm,67,0,target_possessive_base_positive,30,minus_trigger,100
1604282214,2c5ab6738227ff59aea9608f00876783,RangeForm,95,0,target_question_base_positive,44,minus_trigger,100
1604282214,2c5ab6738227ff59aea9608f00876783,RangeForm,95,0,target_question_base_positive,44,plus_trigger,100
1604282214,2c5ab6738227ff59aea9608f00876783,RangeForm,71,0,target_possessive_base_positive,32,plus_trigger,100
1604282214,2c5ab6738227ff59aea9608f00876783,RangeForm,71,0,target_possessive_base_positive,32,minus_trigger,93
1604282214,2c5ab6738227ff59aea9608f00876783,RangeForm,11,0,target_only_base_positive,2,plus_trigger,100
1604282214,2c5ab6738227ff59aea9608f00876783,RangeForm,11,0,target_only_base_positive,2,minus_trigger,13
1604282214,2c5ab6738227ff59aea9608f00876783,RangeForm,63,0,target_accomplishment_base_positive,28,minus_trigger,100
1604282214,2c5ab6738227ff59aea9608f00876783,RangeForm,63,0,target_accomplishment_base_positive,28,plus_trigger,100
1604282214,2c5ab6738227ff59aea9608f00876783,RangeForm,119,0,target_stateChange_base_positive,56,plus_trigger,100
1604282214,2c5ab6738227ff59aea9608f00876783,RangeForm,119,0,target_stateChange_base_positive,56,minus_trigger,100
1604282214,2c5ab6738227ff59aea9608f00876783,RangeForm,70,0,target_possessive_base_neutral,31,plus_trigger,100
1604282214,2c5ab6738227ff59aea9608f00876783,RangeForm,70,0,target_possessive_base_neutral,31,minus_trigger,100
1604282214,2c5ab6738227ff59aea9608f00876783,RangeForm,18,0,target_even_base_neutral,5,plus_trigger,7
1604282214,2c5ab6738227ff59aea9608f00876783,RangeForm,18,0,target_even_base_neutral,5,minus_trigger,100
1604282214,2c5ab6738227ff59aea9608f00876783,RangeForm,127,0,target_still_base_positive,60,minus_trigger,94
1604282214,2c5ab6738227ff59aea9608f00876783,RangeForm,127,0,target_still_base_positive,60,plus_trigger,100
1604282214,2c5ab6738227ff59aea9608f00876783,RangeForm,15,0,target_only_base_positive,4,plus_trigger,100
1604282214,2c5ab6738227ff59aea9608f00876783,RangeForm,15,0,target_only_base_positive,4,minus_trigger,69
1604282214,2c5ab6738227ff59aea9608f00876783,RangeForm,59,0,target_accomplishment_base_positive,26,plus_trigger,100
1604282214,2c5ab6738227ff59aea9608f00876783,RangeForm,59,0,target_accomplishment_base_positive,26,minus_trigger,100
1604282214,2c5ab6738227ff59aea9608f00876783,RangeForm,82,0,target_definite_base_neutral,37,plus_trigger,100
1604282214,2c5ab6738227ff59aea9608f00876783,RangeForm,82,0,target_definite_base_neutral,37,minus_trigger,100
1604282214,2c5ab6738227ff59aea9608f00876783,RangeForm,47,0,target_embedding_base_positive,20,plus_trigger,95
1604282214,2c5ab6738227ff59aea9608f00876783,RangeForm,47,0,target_embedding_base_positive,20,minus_trigger,100
1604282214,2c5ab6738227ff59aea9608f00876783,RangeForm,10,0,target_only_base_neutral,1,minus_trigger,100
1604282214,2c5ab6738227ff59aea9608f00876783,RangeForm,10,0,target_only_base_neutral,1,plus_trigger,77
1604282214,2c5ab6738227ff59aea9608f00876783,RangeForm,118,0,target_stateChange_base_neutral,55,plus_trigger,100
1604282214,2c5ab6738227ff59aea9608f00876783,RangeForm,118,0,target_stateChange_base_neutral,55,minus_trigger,100
1604282214,2c5ab6738227ff59aea9608f00876783,RangeForm,107,0,target_back_base_positive,50,plus_trigger,100
1604282214,2c5ab6738227ff59aea9608f00876783,RangeForm,107,0,target_back_base_positive,50,minus_trigger,95
1604282214,2c5ab6738227ff59aea9608f00876783,RangeForm,26,0,target_even_base_neutral,9,plus_trigger,13
1604282214,2c5ab6738227ff59aea9608f00876783,RangeForm,26,0,target_even_base_neutral,9,minus_trigger,100
1604282214,2c5ab6738227ff59aea9608f00876783,RangeForm,34,0,target_too_base_neutral,13,plus_trigger,9
1604282214,2c5ab6738227ff59aea9608f00876783,RangeForm,34,0,target_too_base_neutral,13,minus_trigger,100
1604282214,2c5ab6738227ff59aea9608f00876783,RangeForm,30,0,target_too_base_neutral,11,plus_trigger,4
1604282214,2c5ab6738227ff59aea9608f00876783,RangeForm,30,0,target_too_base_neutral,11,minus_trigger,100
1604282214,2c5ab6738227ff59aea9608f00876783,RangeForm,39,0,target_cleft_base_positive,16,minus_trigger,100
1604282214,2c5ab6738227ff59aea9608f00876783,RangeForm,39,0,target_cleft_base_positive,16,plus_trigger,93
1604282214,2c5ab6738227ff59aea9608f00876783,RangeForm,66,0,target_accomplishment_base_neutral,29,minus_trigger,100
1604282214,2c5ab6738227ff59aea9608f00876783,RangeForm,66,0,target_accomplishment_base_neutral,29,plus_trigger,100
1604282214,2c5ab6738227ff59aea9608f00876783,RangeForm,106,0,target_again_base_neutral,49,minus_trigger,100
1604282214,2c5ab6738227ff59aea9608f00876783,RangeForm,106,0,target_again_base_neutral,49,plus_trigger,100
1604282214,2c5ab6738227ff59aea9608f00876783,RangeForm,102,0,target_again_base_neutral,47,plus_trigger,100
1604282214,2c5ab6738227ff59aea9608f00876783,RangeForm,102,0,target_again_base_neutral,47,minus_trigger,100
1604282214,2c5ab6738227ff59aea9608f00876783,RangeForm,123,0,target_stateChange_base_positive,58,minus_trigger,97
1604282214,2c5ab6738227ff59aea9608f00876783,RangeForm,123,0,target_stateChange_base_positive,58,plus_trigger,100
1604282214,2c5ab6738227ff59aea9608f00876783,RangeForm,83,0,target_definite_base_positive,38,plus_trigger,100
1604282214,2c5ab6738227ff59aea9608f00876783,RangeForm,83,0,target_definite_base_positive,38,minus_trigger,75
1604282214,2c5ab6738227ff59aea9608f00876783,RangeForm,62,0,target_accomplishment_base_neutral,27,plus_trigger,100
1604282214,2c5ab6738227ff59aea9608f00876783,RangeForm,62,0,target_accomplishment_base_neutral,27,minus_trigger,100
1604282214,2c5ab6738227ff59aea9608f00876783,RangeForm,131,0,target_still_base_positive,62,minus_trigger,79
1604282214,2c5ab6738227ff59aea9608f00876783,RangeForm,131,0,target_still_base_positive,62,plus_trigger,100
1604282214,2c5ab6738227ff59aea9608f00876783,RangeForm,114,0,target_back_base_neutral,53,plus_trigger,100
1604282214,2c5ab6738227ff59aea9608f00876783,RangeForm,114,0,target_back_base_neutral,53,minus_trigger,100
1604282214,2c5ab6738227ff59aea9608f00876783,RangeForm,31,0,target_too_base_positive,12,plus_trigger,100
1604282214,2c5ab6738227ff59aea9608f00876783,RangeForm,31,0,target_too_base_positive,12,minus_trigger,86
1604282214,2c5ab6738227ff59aea9608f00876783,RangeForm,103,0,target_again_base_positive,48,minus_trigger,66
1604282214,2c5ab6738227ff59aea9608f00876783,RangeForm,103,0,target_again_base_positive,48,plus_trigger,100
1604282214,2c5ab6738227ff59aea9608f00876783,RangeForm,7,0,target_only_base_positive,0,minus_trigger,51
1604282214,2c5ab6738227ff59aea9608f00876783,RangeForm,7,0,target_only_base_positive,0,plus_trigger,81
1604282214,2c5ab6738227ff59aea9608f00876783,RangeForm,94,0,target_question_base_neutral,43,plus_trigger,100
1604282214,2c5ab6738227ff59aea9608f00876783,RangeForm,94,0,target_question_base_neutral,43,minus_trigger,100
1604282214,2c5ab6738227ff59aea9608f00876783,RangeForm,78,0,target_definite_base_neutral,35,plus_trigger,100
1604282214,2c5ab6738227ff59aea9608f00876783,RangeForm,78,0,target_definite_base_neutral,35,minus_trigger,100
1604282214,2c5ab6738227ff59aea9608f00876783,RangeForm,135,0,target_still_base_positive,64,minus_trigger,11
1604282214,2c5ab6738227ff59aea9608f00876783,RangeForm,135,0,target_still_base_positive,64,plus_trigger,100
1604282214,2c5ab6738227ff59aea9608f00876783,RangeForm,42,0,target_cleft_base_neutral,17,plus_trigger,5
1604282214,2c5ab6738227ff59aea9608f00876783,RangeForm,42,0,target_cleft_base_neutral,17,minus_trigger,100
1604282214,2c5ab6738227ff59aea9608f00876783,RangeForm,74,0,target_possessive_base_neutral,33,minus_trigger,99
1604282214,2c5ab6738227ff59aea9608f00876783,RangeForm,74,0,target_possessive_base_neutral,33,plus_trigger,100
1604282214,2c5ab6738227ff59aea9608f00876783,RangeForm,54,0,target_embedding_base_neutral,23,plus_trigger,100
1604282214,2c5ab6738227ff59aea9608f00876783,RangeForm,54,0,target_embedding_base_neutral,23,minus_trigger,100
1604282214,2c5ab6738227ff59aea9608f00876783,RangeForm,126,0,target_stateChange_base_neutral,59,plus_trigger,100
1604282214,2c5ab6738227ff59aea9608f00876783,RangeForm,126,0,target_stateChange_base_neutral,59,minus_trigger,100
1604282214,2c5ab6738227ff59aea9608f00876783,RangeForm,75,0,target_possessive_base_positive,34,plus_trigger,100
1604282214,2c5ab6738227ff59aea9608f00876783,RangeForm,75,0,target_possessive_base_positive,34,minus_trigger,91
1604282214,2c5ab6738227ff59aea9608f00876783,RangeForm,79,0,target_definite_base_positive,36,plus_trigger,100
1604282214,2c5ab6738227ff59aea9608f00876783,RangeForm,79,0,target_definite_base_positive,36,minus_trigger,89
1604282214,2c5ab6738227ff59aea9608f00876783,RangeForm,55,0,target_embedding_base_positive,24,plus_trigger,100
1604282214,2c5ab6738227ff59aea9608f00876783,RangeForm,55,0,target_embedding_base_positive,24,minus_trigger,100
1604282214,2c5ab6738227ff59aea9608f00876783,RangeForm,98,0,target_again_base_neutral,45,minus_trigger,100
1604282214,2c5ab6738227ff59aea9608f00876783,RangeForm,98,0,target_again_base_neutral,45,plus_trigger,100
1604282214,2c5ab6738227ff59aea9608f00876783,RangeForm,51,0,target_embedding_base_positive,22,minus_trigger,18
1604282214,2c5ab6738227ff59aea9608f00876783,RangeForm,51,0,target_embedding_base_positive,22,plus_trigger,100
1604282214,2c5ab6738227ff59aea9608f00876783,Form,3,0,outro,NULL,review,no%0A
1604282214,2c5ab6738227ff59aea9608f00876783,Form,3,0,outro,NULL,nativeq,yes
1604282214,2c5ab6738227ff59aea9608f00876783,Form,3,0,outro,NULL,_REACTION_TIME_,17865
#
# Results on Monday November 02 2020 01:59:50 UTC.
# USER AGENT: Mozilla/5.0 (X11; Linux x86_64) AppleWebKit/537.36 (KHTML, like Gecko) Chrome/86.0.4240.111 Safari/537.36
# Design number was non-random = 0
#
# Columns below this comment are as follows:
# 1. Time results were received.
# 2. MD5 hash of participant's IP address.
# 3. Controller name.
# 4. Item number.
# 5. Element number.
# 6. Type.
# 7. Group.
# 8. Field name.
# 9. Field value.
1604282391,6b1aa009cb886e3e8744dd2affce3a46,Form,1,0,intro,NULL,TurkID,A10IUXCZBNYUXC
1604282391,6b1aa009cb886e3e8744dd2affce3a46,Form,1,0,intro,NULL,_REACTION_TIME_,107227
1604282391,6b1aa009cb886e3e8744dd2affce3a46,Form,2,0,instructions,NULL,_REACTION_TIME_,67901
1604282391,6b1aa009cb886e3e8744dd2affce3a46,RangeForm,4,0,practice1,NULL,plus_trigger,1
1604282391,6b1aa009cb886e3e8744dd2affce3a46,RangeForm,4,0,practice1,NULL,minus_trigger,100
1604282391,6b1aa009cb886e3e8744dd2affce3a46,RangeForm,5,0,practice1,NULL,plus_trigger,100
1604282391,6b1aa009cb886e3e8744dd2affce3a46,RangeForm,5,0,practice1,NULL,minus_trigger,100
1604282391,6b1aa009cb886e3e8744dd2affce3a46,RangeForm,6,0,practice1,NULL,plus_trigger,1
1604282391,6b1aa009cb886e3e8744dd2affce3a46,RangeForm,6,0,practice1,NULL,minus_trigger,100
1604282391,6b1aa009cb886e3e8744dd2affce3a46,RangeForm,47,0,target_embedding_base_positive,20,minus_trigger,80
1604282391,6b1aa009cb886e3e8744dd2affce3a46,RangeForm,47,0,target_embedding_base_positive,20,plus_trigger,100
1604282391,6b1aa009cb886e3e8744dd2affce3a46,RangeForm,43,0,target_cleft_base_positive,18,minus_trigger,69
1604282391,6b1aa009cb886e3e8744dd2affce3a46,RangeForm,43,0,target_cleft_base_positive,18,plus_trigger,100
1604282391,6b1aa009cb886e3e8744dd2affce3a46,RangeForm,98,0,target_again_base_neutral,45,minus_trigger,100
1604282391,6b1aa009cb886e3e8744dd2affce3a46,RangeForm,98,0,target_again_base_neutral,45,plus_trigger,58
1604282391,6b1aa009cb886e3e8744dd2affce3a46,RangeForm,135,0,target_still_base_positive,64,minus_trigger,69
1604282391,6b1aa009cb886e3e8744dd2affce3a46,RangeForm,135,0,target_still_base_positive,64,plus_trigger,100
1604282391,6b1aa009cb886e3e8744dd2affce3a46,RangeForm,7,0,target_only_base_positive,0,minus_trigger,100
1604282391,6b1aa009cb886e3e8744dd2affce3a46,RangeForm,7,0,target_only_base_positive,0,plus_trigger,65
1604282391,6b1aa009cb886e3e8744dd2affce3a46,RangeForm,63,0,target_accomplishment_base_positive,28,minus_trigger,100
1604282391,6b1aa009cb886e3e8744dd2affce3a46,RangeForm,63,0,target_accomplishment_base_positive,28,plus_trigger,93
1604282391,6b1aa009cb886e3e8744dd2affce3a46,RangeForm,54,0,target_embedding_base_neutral,23,plus_trigger,100
1604282391,6b1aa009cb886e3e8744dd2affce3a46,RangeForm,54,0,target_embedding_base_neutral,23,minus_trigger,64
1604282391,6b1aa009cb886e3e8744dd2affce3a46,RangeForm,75,0,target_possessive_base_positive,34,plus_trigger,77
1604282391,6b1aa009cb886e3e8744dd2affce3a46,RangeForm,75,0,target_possessive_base_positive,34,minus_trigger,96
1604282391,6b1aa009cb886e3e8744dd2affce3a46,RangeForm,78,0,target_definite_base_neutral,35,plus_trigger,100
1604282391,6b1aa009cb886e3e8744dd2affce3a46,RangeForm,78,0,target_definite_base_neutral,35,minus_trigger,89
1604282391,6b1aa009cb886e3e8744dd2affce3a46,RangeForm,26,0,target_even_base_neutral,9,plus_trigger,21
1604282391,6b1aa009cb886e3e8744dd2affce3a46,RangeForm,26,0,target_even_base_neutral,9,minus_trigger,100
1604282391,6b1aa009cb886e3e8744dd2affce3a46,RangeForm,106,0,target_again_base_neutral,49,minus_trigger,100
1604282391,6b1aa009cb886e3e8744dd2affce3a46,RangeForm,106,0,target_again_base_neutral,49,plus_trigger,97
1604282391,6b1aa009cb886e3e8744dd2affce3a46,RangeForm,22,0,target_even_base_neutral,7,minus_trigger,96
1604282391,6b1aa009cb886e3e8744dd2affce3a46,RangeForm,22,0,target_even_base_neutral,7,plus_trigger,15
1604282391,6b1aa009cb886e3e8744dd2affce3a46,RangeForm,11,0,target_only_base_positive,2,minus_trigger,95
1604282391,6b1aa009cb886e3e8744dd2affce3a46,RangeForm,11,0,target_only_base_positive,2,plus_trigger,32
1604282391,6b1aa009cb886e3e8744dd2affce3a46,RangeForm,95,0,target_question_base_positive,44,plus_trigger,95
1604282391,6b1aa009cb886e3e8744dd2affce3a46,RangeForm,95,0,target_question_base_positive,44,minus_trigger,100
1604282391,6b1aa009cb886e3e8744dd2affce3a46,RangeForm,14,0,target_only_base_neutral,3,minus_trigger,98
1604282391,6b1aa009cb886e3e8744dd2affce3a46,RangeForm,14,0,target_only_base_neutral,3,plus_trigger,6
1604282391,6b1aa009cb886e3e8744dd2affce3a46,RangeForm,119,0,target_stateChange_base_positive,56,minus_trigger,96
1604282391,6b1aa009cb886e3e8744dd2affce3a46,RangeForm,119,0,target_stateChange_base_positive,56,plus_trigger,100
1604282391,6b1aa009cb886e3e8744dd2affce3a46,RangeForm,123,0,target_stateChange_base_positive,58,minus_trigger,90
1604282391,6b1aa009cb886e3e8744dd2affce3a46,RangeForm,123,0,target_stateChange_base_positive,58,plus_trigger,100
1604282391,6b1aa009cb886e3e8744dd2affce3a46,RangeForm,131,0,target_still_base_positive,62,minus_trigger,96
1604282391,6b1aa009cb886e3e8744dd2affce3a46,RangeForm,131,0,target_still_base_positive,62,plus_trigger,100
1604282391,6b1aa009cb886e3e8744dd2affce3a46,RangeForm,42,0,target_cleft_base_neutral,17,plus_trigger,6
1604282391,6b1aa009cb886e3e8744dd2affce3a46,RangeForm,42,0,target_cleft_base_neutral,17,minus_trigger,100
1604282391,6b1aa009cb886e3e8744dd2affce3a46,RangeForm,83,0,target_definite_base_positive,38,minus_trigger,21
1604282391,6b1aa009cb886e3e8744dd2affce3a46,RangeForm,83,0,target_definite_base_positive,38,plus_trigger,100
1604282391,6b1aa009cb886e3e8744dd2affce3a46,RangeForm,66,0,target_accomplishment_base_neutral,29,plus_trigger,95
1604282391,6b1aa009cb886e3e8744dd2affce3a46,RangeForm,66,0,target_accomplishment_base_neutral,29,minus_trigger,100
1604282391,6b1aa009cb886e3e8744dd2affce3a46,RangeForm,91,0,target_question_base_positive,42,plus_trigger,100
1604282391,6b1aa009cb886e3e8744dd2affce3a46,RangeForm,91,0,target_question_base_positive,42,minus_trigger,84
1604282391,6b1aa009cb886e3e8744dd2affce3a46,RangeForm,110,0,target_back_base_neutral,51,minus_trigger,100
1604282391,6b1aa009cb886e3e8744dd2affce3a46,RangeForm,110,0,target_back_base_neutral,51,plus_trigger,82
1604282391,6b1aa009cb886e3e8744dd2affce3a46,RangeForm,87,0,target_question_base_positive,40,plus_trigger,98
1604282391,6b1aa009cb886e3e8744dd2affce3a46,RangeForm,87,0,target_question_base_positive,40,minus_trigger,100
1604282391,6b1aa009cb886e3e8744dd2affce3a46,RangeForm,46,0,target_cleft_base_neutral,19,plus_trigger,34
1604282391,6b1aa009cb886e3e8744dd2affce3a46,RangeForm,46,0,target_cleft_base_neutral,19,minus_trigger,100
1604282391,6b1aa009cb886e3e8744dd2affce3a46,RangeForm,74,0,target_possessive_base_neutral,33,plus_trigger,100
1604282391,6b1aa009cb886e3e8744dd2affce3a46,RangeForm,74,0,target_possessive_base_neutral,33,minus_trigger,79
1604282391,6b1aa009cb886e3e8744dd2affce3a46,RangeForm,130,0,target_still_base_neutral,61,plus_trigger,32
1604282391,6b1aa009cb886e3e8744dd2affce3a46,RangeForm,130,0,target_still_base_neutral,61,minus_trigger,100
1604282391,6b1aa009cb886e3e8744dd2affce3a46,RangeForm,38,0,target_cleft_base_neutral,15,plus_trigger,15
1604282391,6b1aa009cb886e3e8744dd2affce3a46,RangeForm,38,0,target_cleft_base_neutral,15,minus_trigger,100
1604282391,6b1aa009cb886e3e8744dd2affce3a46,RangeForm,86,0,target_definite_base_neutral,39,minus_trigger,100
1604282391,6b1aa009cb886e3e8744dd2affce3a46,RangeForm,86,0,target_definite_base_neutral,39,plus_trigger,74
1604282391,6b1aa009cb886e3e8744dd2affce3a46,RangeForm,27,0,target_too_base_positive,10,plus_trigger,100
1604282391,6b1aa009cb886e3e8744dd2affce3a46,RangeForm,27,0,target_too_base_positive,10,minus_trigger,20
1604282391,6b1aa009cb886e3e8744dd2affce3a46,RangeForm,34,0,target_too_base_neutral,13,minus_trigger,100
1604282391,6b1aa009cb886e3e8744dd2affce3a46,RangeForm,34,0,target_too_base_neutral,13,plus_trigger,16
1604282391,6b1aa009cb886e3e8744dd2affce3a46,RangeForm,111,0,target_back_base_positive,52,minus_trigger,75
1604282391,6b1aa009cb886e3e8744dd2affce3a46,RangeForm,111,0,target_back_base_positive,52,plus_trigger,100
1604282391,6b1aa009cb886e3e8744dd2affce3a46,RangeForm,62,0,target_accomplishment_base_neutral,27,plus_trigger,64
1604282391,6b1aa009cb886e3e8744dd2affce3a46,RangeForm,62,0,target_accomplishment_base_neutral,27,minus_trigger,100
1604282391,6b1aa009cb886e3e8744dd2affce3a46,RangeForm,18,0,target_even_base_neutral,5,plus_trigger,1
1604282391,6b1aa009cb886e3e8744dd2affce3a46,RangeForm,18,0,target_even_base_neutral,5,minus_trigger,1
1604282391,6b1aa009cb886e3e8744dd2affce3a46,RangeForm,58,0,target_accomplishment_base_neutral,25,plus_trigger,64
1604282391,6b1aa009cb886e3e8744dd2affce3a46,RangeForm,58,0,target_accomplishment_base_neutral,25,minus_trigger,100
1604282391,6b1aa009cb886e3e8744dd2affce3a46,RangeForm,55,0,target_embedding_base_positive,24,minus_trigger,14
1604282391,6b1aa009cb886e3e8744dd2affce3a46,RangeForm,55,0,target_embedding_base_positive,24,plus_trigger,100
1604282391,6b1aa009cb886e3e8744dd2affce3a46,RangeForm,103,0,target_again_base_positive,48,minus_trigger,13
1604282391,6b1aa009cb886e3e8744dd2affce3a46,RangeForm,103,0,target_again_base_positive,48,plus_trigger,100
1604282391,6b1aa009cb886e3e8744dd2affce3a46,RangeForm,122,0,target_stateChange_base_neutral,57,minus_trigger,100
1604282391,6b1aa009cb886e3e8744dd2affce3a46,RangeForm,122,0,target_stateChange_base_neutral,57,plus_trigger,64
1604282391,6b1aa009cb886e3e8744dd2affce3a46,RangeForm,19,0,target_even_base_positive,6,minus_trigger,28
1604282391,6b1aa009cb886e3e8744dd2affce3a46,RangeForm,19,0,target_even_base_positive,6,plus_trigger,100
1604282391,6b1aa009cb886e3e8744dd2affce3a46,RangeForm,126,0,target_stateChange_base_neutral,59,minus_trigger,100
1604282391,6b1aa009cb886e3e8744dd2affce3a46,RangeForm,126,0,target_stateChange_base_neutral,59,plus_trigger,75
1604282391,6b1aa009cb886e3e8744dd2affce3a46,RangeForm,70,0,target_possessive_base_neutral,31,minus_trigger,65
1604282391,6b1aa009cb886e3e8744dd2affce3a46,RangeForm,70,0,target_possessive_base_neutral,31,plus_trigger,100
1604282391,6b1aa009cb886e3e8744dd2affce3a46,RangeForm,99,0,target_again_base_positive,46,minus_trigger,66
1604282391,6b1aa009cb886e3e8744dd2affce3a46,RangeForm,99,0,target_again_base_positive,46,plus_trigger,100
1604282391,6b1aa009cb886e3e8744dd2affce3a46,RangeForm,15,0,target_only_base_positive,4,minus_trigger,88
1604282391,6b1aa009cb886e3e8744dd2affce3a46,RangeForm,15,0,target_only_base_positive,4,plus_trigger,61
1604282391,6b1aa009cb886e3e8744dd2affce3a46,RangeForm,102,0,target_again_base_neutral,47,minus_trigger,85
1604282391,6b1aa009cb886e3e8744dd2affce3a46,RangeForm,102,0,target_again_base_neutral,47,plus_trigger,98
1604282391,6b1aa009cb886e3e8744dd2affce3a46,RangeForm,71,0,target_possessive_base_positive,32,plus_trigger,100
1604282391,6b1aa009cb886e3e8744dd2affce3a46,RangeForm,71,0,target_possessive_base_positive,32,minus_trigger,71
1604282391,6b1aa009cb886e3e8744dd2affce3a46,RangeForm,10,0,target_only_base_neutral,1,plus_trigger,37
1604282391,6b1aa009cb886e3e8744dd2affce3a46,RangeForm,10,0,target_only_base_neutral,1,minus_trigger,99
1604282391,6b1aa009cb886e3e8744dd2affce3a46,RangeForm,134,0,target_still_base_neutral,63,plus_trigger,79
1604282391,6b1aa009cb886e3e8744dd2affce3a46,RangeForm,134,0,target_still_base_neutral,63,minus_trigger,98
1604282391,6b1aa009cb886e3e8744dd2affce3a46,RangeForm,30,0,target_too_base_neutral,11,plus_trigger,28
1604282391,6b1aa009cb886e3e8744dd2affce3a46,RangeForm,30,0,target_too_base_neutral,11,minus_trigger,100
1604282391,6b1aa009cb886e3e8744dd2affce3a46,RangeForm,118,0,target_stateChange_base_neutral,55,minus_trigger,98
1604282391,6b1aa009cb886e3e8744dd2affce3a46,RangeForm,118,0,target_stateChange_base_neutral,55,plus_trigger,21
1604282391,6b1aa009cb886e3e8744dd2affce3a46,RangeForm,79,0,target_definite_base_positive,36,minus_trigger,97
1604282391,6b1aa009cb886e3e8744dd2affce3a46,RangeForm,79,0,target_definite_base_positive,36,plus_trigger,58
1604282391,6b1aa009cb886e3e8744dd2affce3a46,RangeForm,107,0,target_back_base_positive,50,minus_trigger,61
1604282391,6b1aa009cb886e3e8744dd2affce3a46,RangeForm,107,0,target_back_base_positive,50,plus_trigger,99
1604282391,6b1aa009cb886e3e8744dd2affce3a46,RangeForm,114,0,target_back_base_neutral,53,plus_trigger,35
1604282391,6b1aa009cb886e3e8744dd2affce3a46,RangeForm,114,0,target_back_base_neutral,53,minus_trigger,100
1604282391,6b1aa009cb886e3e8744dd2affce3a46,RangeForm,31,0,target_too_base_positive,12,plus_trigger,100
1604282391,6b1aa009cb886e3e8744dd2affce3a46,RangeForm,31,0,target_too_base_positive,12,minus_trigger,27
1604282391,6b1aa009cb886e3e8744dd2affce3a46,RangeForm,67,0,target_possessive_base_positive,30,minus_trigger,74
1604282391,6b1aa009cb886e3e8744dd2affce3a46,RangeForm,67,0,target_possessive_base_positive,30,plus_trigger,100
1604282391,6b1aa009cb886e3e8744dd2affce3a46,RangeForm,59,0,target_accomplishment_base_positive,26,minus_trigger,39
1604282391,6b1aa009cb886e3e8744dd2affce3a46,RangeForm,59,0,target_accomplishment_base_positive,26,plus_trigger,100
1604282391,6b1aa009cb886e3e8744dd2affce3a46,RangeForm,35,0,target_too_base_positive,14,minus_trigger,24
1604282391,6b1aa009cb886e3e8744dd2affce3a46,RangeForm,35,0,target_too_base_positive,14,plus_trigger,98
1604282391,6b1aa009cb886e3e8744dd2affce3a46,RangeForm,127,0,target_still_base_positive,60,plus_trigger,58
1604282391,6b1aa009cb886e3e8744dd2affce3a46,RangeForm,127,0,target_still_base_positive,60,minus_trigger,92
1604282391,6b1aa009cb886e3e8744dd2affce3a46,RangeForm,39,0,target_cleft_base_positive,16,plus_trigger,1
1604282391,6b1aa009cb886e3e8744dd2affce3a46,RangeForm,39,0,target_cleft_base_positive,16,minus_trigger,100
1604282391,6b1aa009cb886e3e8744dd2affce3a46,RangeForm,51,0,target_embedding_base_positive,22,plus_trigger,100
1604282391,6b1aa009cb886e3e8744dd2affce3a46,RangeForm,51,0,target_embedding_base_positive,22,minus_trigger,1
1604282391,6b1aa009cb886e3e8744dd2affce3a46,RangeForm,94,0,target_question_base_neutral,43,minus_trigger,100
1604282391,6b1aa009cb886e3e8744dd2affce3a46,RangeForm,94,0,target_question_base_neutral,43,plus_trigger,59
1604282391,6b1aa009cb886e3e8744dd2affce3a46,RangeForm,82,0,target_definite_base_neutral,37,minus_trigger,100
1604282391,6b1aa009cb886e3e8744dd2affce3a46,RangeForm,82,0,target_definite_base_neutral,37,plus_trigger,35
1604282391,6b1aa009cb886e3e8744dd2affce3a46,RangeForm,23,0,target_even_base_positive,8,plus_trigger,100
1604282391,6b1aa009cb886e3e8744dd2affce3a46,RangeForm,23,0,target_even_base_positive,8,minus_trigger,42
1604282391,6b1aa009cb886e3e8744dd2affce3a46,RangeForm,50,0,target_embedding_base_neutral,21,plus_trigger,100
1604282391,6b1aa009cb886e3e8744dd2affce3a46,RangeForm,50,0,target_embedding_base_neutral,21,minus_trigger,65
1604282391,6b1aa009cb886e3e8744dd2affce3a46,RangeForm,115,0,target_back_base_positive,54,plus_trigger,100
1604282391,6b1aa009cb886e3e8744dd2affce3a46,RangeForm,115,0,target_back_base_positive,54,minus_trigger,1
1604282391,6b1aa009cb886e3e8744dd2affce3a46,RangeForm,90,0,target_question_base_neutral,41,minus_trigger,100
1604282391,6b1aa009cb886e3e8744dd2affce3a46,RangeForm,90,0,target_question_base_neutral,41,plus_trigger,16
1604282391,6b1aa009cb886e3e8744dd2affce3a46,Form,3,0,outro,NULL,review,Is there anything you would like us to know about the survey?%0A
1604282391,6b1aa009cb886e3e8744dd2affce3a46,Form,3,0,outro,NULL,nativeq,yes
1604282391,6b1aa009cb886e3e8744dd2affce3a46,Form,3,0,outro,NULL,_REACTION_TIME_,28091
#
# Results on Monday November 02 2020 02:03:37 UTC.
# USER AGENT: Mozilla/5.0 (Windows NT 10.0; Win64; x64) AppleWebKit/537.36 (KHTML, like Gecko) Chrome/86.0.4240.111 Safari/537.36
# Design number was non-random = 1
#
# Columns below this comment are as follows:
# 1. Time results were received.
# 2. MD5 hash of participant's IP address.
# 3. Controller name.
# 4. Item number.
# 5. Element number.
# 6. Type.
# 7. Group.
# 8. Field name.
# 9. Field value.
1604282617,80a9f7f6d1e499c265327bc0ea459c27,Form,1,0,intro,NULL,TurkID,A25LXRZ7HED8RM
1604282617,80a9f7f6d1e499c265327bc0ea459c27,Form,1,0,intro,NULL,_REACTION_TIME_,81327
1604282617,80a9f7f6d1e499c265327bc0ea459c27,Form,2,0,instructions,NULL,_REACTION_TIME_,21039
1604282617,80a9f7f6d1e499c265327bc0ea459c27,RangeForm,4,0,practice1,NULL,plus_trigger,1
1604282617,80a9f7f6d1e499c265327bc0ea459c27,RangeForm,4,0,practice1,NULL,minus_trigger,100
1604282617,80a9f7f6d1e499c265327bc0ea459c27,RangeForm,5,0,practice1,NULL,minus_trigger,100
1604282617,80a9f7f6d1e499c265327bc0ea459c27,RangeForm,5,0,practice1,NULL,plus_trigger,100
1604282617,80a9f7f6d1e499c265327bc0ea459c27,RangeForm,6,0,practice1,NULL,minus_trigger,100
1604282617,80a9f7f6d1e499c265327bc0ea459c27,RangeForm,6,0,practice1,NULL,plus_trigger,10
1604282617,80a9f7f6d1e499c265327bc0ea459c27,RangeForm,32,0,target_too_base_neutral,12,minus_trigger,98
1604282617,80a9f7f6d1e499c265327bc0ea459c27,RangeForm,32,0,target_too_base_neutral,12,plus_trigger,94
1604282617,80a9f7f6d1e499c265327bc0ea459c27,RangeForm,125,0,target_stateChange_base_positive,59,minus_trigger,100
1604282617,80a9f7f6d1e499c265327bc0ea459c27,RangeForm,125,0,target_stateChange_base_positive,59,plus_trigger,100
1604282617,80a9f7f6d1e499c265327bc0ea459c27,RangeForm,28,0,target_too_base_neutral,10,plus_trigger,50
1604282617,80a9f7f6d1e499c265327bc0ea459c27,RangeForm,28,0,target_too_base_neutral,10,minus_trigger,98
1604282617,80a9f7f6d1e499c265327bc0ea459c27,RangeForm,44,0,target_cleft_base_neutral,18,minus_trigger,100
1604282617,80a9f7f6d1e499c265327bc0ea459c27,RangeForm,44,0,target_cleft_base_neutral,18,plus_trigger,1
1604282617,80a9f7f6d1e499c265327bc0ea459c27,RangeForm,124,0,target_stateChange_base_neutral,58,minus_trigger,100
1604282617,80a9f7f6d1e499c265327bc0ea459c27,RangeForm,124,0,target_stateChange_base_neutral,58,plus_trigger,1
1604282617,80a9f7f6d1e499c265327bc0ea459c27,RangeForm,33,0,target_too_base_positive,13,minus_trigger,10
1604282617,80a9f7f6d1e499c265327bc0ea459c27,RangeForm,33,0,target_too_base_positive,13,plus_trigger,11
1604282617,80a9f7f6d1e499c265327bc0ea459c27,RangeForm,45,0,target_cleft_base_positive,19,minus_trigger,97
1604282617,80a9f7f6d1e499c265327bc0ea459c27,RangeForm,45,0,target_cleft_base_positive,19,plus_trigger,94
1604282617,80a9f7f6d1e499c265327bc0ea459c27,RangeForm,72,0,target_possessive_base_neutral,32,plus_trigger,100
1604282617,80a9f7f6d1e499c265327bc0ea459c27,RangeForm,72,0,target_possessive_base_neutral,32,minus_trigger,100
1604282617,80a9f7f6d1e499c265327bc0ea459c27,RangeForm,73,0,target_possessive_base_positive,33,plus_trigger,100
1604282617,80a9f7f6d1e499c265327bc0ea459c27,RangeForm,73,0,target_possessive_base_positive,33,minus_trigger,100
1604282617,80a9f7f6d1e499c265327bc0ea459c27,RangeForm,80,0,target_definite_base_neutral,36,plus_trigger,100
1604282617,80a9f7f6d1e499c265327bc0ea459c27,RangeForm,80,0,target_definite_base_neutral,36,minus_trigger,100
1604282617,80a9f7f6d1e499c265327bc0ea459c27,RangeForm,84,0,target_definite_base_neutral,38,minus_trigger,97
1604282617,80a9f7f6d1e499c265327bc0ea459c27,RangeForm,84,0,target_definite_base_neutral,38,plus_trigger,100
1604282617,80a9f7f6d1e499c265327bc0ea459c27,RangeForm,136,0,target_still_base_neutral,64,plus_trigger,100
1604282617,80a9f7f6d1e499c265327bc0ea459c27,RangeForm,136,0,target_still_base_neutral,64,minus_trigger,100
1604282617,80a9f7f6d1e499c265327bc0ea459c27,RangeForm,104,0,target_again_base_neutral,48,minus_trigger,96
1604282617,80a9f7f6d1e499c265327bc0ea459c27,RangeForm,104,0,target_again_base_neutral,48,plus_trigger,100
1604282617,80a9f7f6d1e499c265327bc0ea459c27,RangeForm,85,0,target_definite_base_positive,39,plus_trigger,95
1604282617,80a9f7f6d1e499c265327bc0ea459c27,RangeForm,85,0,target_definite_base_positive,39,minus_trigger,90
1604282617,80a9f7f6d1e499c265327bc0ea459c27,RangeForm,121,0,target_stateChange_base_positive,57,minus_trigger,94
1604282617,80a9f7f6d1e499c265327bc0ea459c27,RangeForm,121,0,target_stateChange_base_positive,57,plus_trigger,86
1604282617,80a9f7f6d1e499c265327bc0ea459c27,RangeForm,48,0,target_embedding_base_neutral,20,minus_trigger,96
1604282617,80a9f7f6d1e499c265327bc0ea459c27,RangeForm,48,0,target_embedding_base_neutral,20,plus_trigger,91
1604282617,80a9f7f6d1e499c265327bc0ea459c27,RangeForm,9,0,target_only_base_positive,1,minus_trigger,100
1604282617,80a9f7f6d1e499c265327bc0ea459c27,RangeForm,9,0,target_only_base_positive,1,plus_trigger,98
1604282617,80a9f7f6d1e499c265327bc0ea459c27,RangeForm,93,0,target_question_base_positive,43,minus_trigger,95
1604282617,80a9f7f6d1e499c265327bc0ea459c27,RangeForm,93,0,target_question_base_positive,43,plus_trigger,95
1604282617,80a9f7f6d1e499c265327bc0ea459c27,RangeForm,8,0,target_only_base_neutral,0,plus_trigger,93
1604282617,80a9f7f6d1e499c265327bc0ea459c27,RangeForm,8,0,target_only_base_neutral,0,minus_trigger,100
1604282617,80a9f7f6d1e499c265327bc0ea459c27,RangeForm,88,0,target_question_base_neutral,40,minus_trigger,97
1604282617,80a9f7f6d1e499c265327bc0ea459c27,RangeForm,88,0,target_question_base_neutral,40,plus_trigger,95
1604282617,80a9f7f6d1e499c265327bc0ea459c27,RangeForm,100,0,target_again_base_neutral,46,minus_trigger,97
1604282617,80a9f7f6d1e499c265327bc0ea459c27,RangeForm,100,0,target_again_base_neutral,46,plus_trigger,100
1604282617,80a9f7f6d1e499c265327bc0ea459c27,RangeForm,116,0,target_back_base_neutral,54,minus_trigger,95
1604282617,80a9f7f6d1e499c265327bc0ea459c27,RangeForm,116,0,target_back_base_neutral,54,plus_trigger,94
1604282617,80a9f7f6d1e499c265327bc0ea459c27,RangeForm,52,0,target_embedding_base_neutral,22,plus_trigger,92
1604282617,80a9f7f6d1e499c265327bc0ea459c27,RangeForm,52,0,target_embedding_base_neutral,22,minus_trigger,94
1604282617,80a9f7f6d1e499c265327bc0ea459c27,RangeForm,96,0,target_question_base_neutral,44,plus_trigger,100
1604282617,80a9f7f6d1e499c265327bc0ea459c27,RangeForm,96,0,target_question_base_neutral,44,minus_trigger,100
1604282617,80a9f7f6d1e499c265327bc0ea459c27,RangeForm,25,0,target_even_base_positive,9,minus_trigger,98
1604282617,80a9f7f6d1e499c265327bc0ea459c27,RangeForm,25,0,target_even_base_positive,9,plus_trigger,99
1604282617,80a9f7f6d1e499c265327bc0ea459c27,RangeForm,112,0,target_back_base_neutral,52,minus_trigger,99
1604282617,80a9f7f6d1e499c265327bc0ea459c27,RangeForm,112,0,target_back_base_neutral,52,plus_trigger,100
1604282617,80a9f7f6d1e499c265327bc0ea459c27,RangeForm,120,0,target_stateChange_base_neutral,56,plus_trigger,100
1604282617,80a9f7f6d1e499c265327bc0ea459c27,RangeForm,120,0,target_stateChange_base_neutral,56,minus_trigger,100
1604282617,80a9f7f6d1e499c265327bc0ea459c27,RangeForm,76,0,target_possessive_base_neutral,34,minus_trigger,100
1604282617,80a9f7f6d1e499c265327bc0ea459c27,RangeForm,76,0,target_possessive_base_neutral,34,plus_trigger,100
1604282617,80a9f7f6d1e499c265327bc0ea459c27,RangeForm,92,0,target_question_base_neutral,42,minus_trigger,100
1604282617,80a9f7f6d1e499c265327bc0ea459c27,RangeForm,92,0,target_question_base_neutral,42,plus_trigger,100
1604282617,80a9f7f6d1e499c265327bc0ea459c27,RangeForm,133,0,target_still_base_positive,63,minus_trigger,100
1604282617,80a9f7f6d1e499c265327bc0ea459c27,RangeForm,133,0,target_still_base_positive,63,plus_trigger,100
1604282617,80a9f7f6d1e499c265327bc0ea459c27,RangeForm,113,0,target_back_base_positive,53,plus_trigger,99
1604282617,80a9f7f6d1e499c265327bc0ea459c27,RangeForm,113,0,target_back_base_positive,53,minus_trigger,97
1604282617,80a9f7f6d1e499c265327bc0ea459c27,RangeForm,53,0,target_embedding_base_positive,23,plus_trigger,97
1604282617,80a9f7f6d1e499c265327bc0ea459c27,RangeForm,53,0,target_embedding_base_positive,23,minus_trigger,98
1604282617,80a9f7f6d1e499c265327bc0ea459c27,RangeForm,37,0,target_cleft_base_positive,15,minus_trigger,100
1604282617,80a9f7f6d1e499c265327bc0ea459c27,RangeForm,37,0,target_cleft_base_positive,15,plus_trigger,99
1604282617,80a9f7f6d1e499c265327bc0ea459c27,RangeForm,16,0,target_only_base_neutral,4,plus_trigger,100
1604282617,80a9f7f6d1e499c265327bc0ea459c27,RangeForm,16,0,target_only_base_neutral,4,minus_trigger,100
1604282617,80a9f7f6d1e499c265327bc0ea459c27,RangeForm,81,0,target_definite_base_positive,37,plus_trigger,100
1604282617,80a9f7f6d1e499c265327bc0ea459c27,RangeForm,81,0,target_definite_base_positive,37,minus_trigger,100
1604282617,80a9f7f6d1e499c265327bc0ea459c27,RangeForm,101,0,target_again_base_positive,47,plus_trigger,99
1604282617,80a9f7f6d1e499c265327bc0ea459c27,RangeForm,101,0,target_again_base_positive,47,minus_trigger,100
1604282617,80a9f7f6d1e499c265327bc0ea459c27,RangeForm,128,0,target_still_base_neutral,60,plus_trigger,100
1604282617,80a9f7f6d1e499c265327bc0ea459c27,RangeForm,128,0,target_still_base_neutral,60,minus_trigger,100
1604282617,80a9f7f6d1e499c265327bc0ea459c27,RangeForm,61,0,target_accomplishment_base_positive,27,plus_trigger,100
1604282617,80a9f7f6d1e499c265327bc0ea459c27,RangeForm,61,0,target_accomplishment_base_positive,27,minus_trigger,100
1604282617,80a9f7f6d1e499c265327bc0ea459c27,RangeForm,12,0,target_only_base_neutral,2,plus_trigger,100
1604282617,80a9f7f6d1e499c265327bc0ea459c27,RangeForm,12,0,target_only_base_neutral,2,minus_trigger,100
1604282617,80a9f7f6d1e499c265327bc0ea459c27,RangeForm,105,0,target_again_base_positive,49,plus_trigger,100
1604282617,80a9f7f6d1e499c265327bc0ea459c27,RangeForm,105,0,target_again_base_positive,49,minus_trigger,100
1604282617,80a9f7f6d1e499c265327bc0ea459c27,RangeForm,56,0,target_embedding_base_neutral,24,minus_trigger,100
1604282617,80a9f7f6d1e499c265327bc0ea459c27,RangeForm,56,0,target_embedding_base_neutral,24,plus_trigger,98
1604282617,80a9f7f6d1e499c265327bc0ea459c27,RangeForm,41,0,target_cleft_base_positive,17,plus_trigger,98
1604282617,80a9f7f6d1e499c265327bc0ea459c27,RangeForm,41,0,target_cleft_base_positive,17,minus_trigger,99
1604282617,80a9f7f6d1e499c265327bc0ea459c27,RangeForm,97,0,target_again_base_positive,45,minus_trigger,99
1604282617,80a9f7f6d1e499c265327bc0ea459c27,RangeForm,97,0,target_again_base_positive,45,plus_trigger,98
1604282617,80a9f7f6d1e499c265327bc0ea459c27,RangeForm,108,0,target_back_base_neutral,50,plus_trigger,98
1604282617,80a9f7f6d1e499c265327bc0ea459c27,RangeForm,108,0,target_back_base_neutral,50,minus_trigger,100
1604282617,80a9f7f6d1e499c265327bc0ea459c27,RangeForm,17,0,target_even_base_positive,5,plus_trigger,100
1604282617,80a9f7f6d1e499c265327bc0ea459c27,RangeForm,17,0,target_even_base_positive,5,minus_trigger,99
1604282617,80a9f7f6d1e499c265327bc0ea459c27,RangeForm,129,0,target_still_base_positive,61,plus_trigger,97
1604282617,80a9f7f6d1e499c265327bc0ea459c27,RangeForm,129,0,target_still_base_positive,61,minus_trigger,98
1604282617,80a9f7f6d1e499c265327bc0ea459c27,RangeForm,69,0,target_possessive_base_positive,31,plus_trigger,87
1604282617,80a9f7f6d1e499c265327bc0ea459c27,RangeForm,69,0,target_possessive_base_positive,31,minus_trigger,95
1604282617,80a9f7f6d1e499c265327bc0ea459c27,RangeForm,77,0,target_definite_base_positive,35,plus_trigger,100
1604282617,80a9f7f6d1e499c265327bc0ea459c27,RangeForm,77,0,target_definite_base_positive,35,minus_trigger,100
1604282617,80a9f7f6d1e499c265327bc0ea459c27,RangeForm,117,0,target_stateChange_base_positive,55,plus_trigger,100
1604282617,80a9f7f6d1e499c265327bc0ea459c27,RangeForm,117,0,target_stateChange_base_positive,55,minus_trigger,97
1604282617,80a9f7f6d1e499c265327bc0ea459c27,RangeForm,24,0,target_even_base_neutral,8,minus_trigger,100
1604282617,80a9f7f6d1e499c265327bc0ea459c27,RangeForm,24,0,target_even_base_neutral,8,plus_trigger,95
1604282617,80a9f7f6d1e499c265327bc0ea459c27,RangeForm,49,0,target_embedding_base_positive,21,minus_trigger,98
1604282617,80a9f7f6d1e499c265327bc0ea459c27,RangeForm,49,0,target_embedding_base_positive,21,plus_trigger,92
1604282617,80a9f7f6d1e499c265327bc0ea459c27,RangeForm,21,0,target_even_base_positive,7,minus_trigger,100
1604282617,80a9f7f6d1e499c265327bc0ea459c27,RangeForm,21,0,target_even_base_positive,7,plus_trigger,96
1604282617,80a9f7f6d1e499c265327bc0ea459c27,RangeForm,132,0,target_still_base_neutral,62,plus_trigger,100
1604282617,80a9f7f6d1e499c265327bc0ea459c27,RangeForm,132,0,target_still_base_neutral,62,minus_trigger,97
1604282617,80a9f7f6d1e499c265327bc0ea459c27,RangeForm,109,0,target_back_base_positive,51,minus_trigger,98
1604282617,80a9f7f6d1e499c265327bc0ea459c27,RangeForm,109,0,target_back_base_positive,51,plus_trigger,97
1604282617,80a9f7f6d1e499c265327bc0ea459c27,RangeForm,57,0,target_accomplishment_base_positive,25,minus_trigger,98
1604282617,80a9f7f6d1e499c265327bc0ea459c27,RangeForm,57,0,target_accomplishment_base_positive,25,plus_trigger,92
1604282617,80a9f7f6d1e499c265327bc0ea459c27,RangeForm,36,0,target_too_base_neutral,14,minus_trigger,100
1604282617,80a9f7f6d1e499c265327bc0ea459c27,RangeForm,36,0,target_too_base_neutral,14,plus_trigger,95
1604282617,80a9f7f6d1e499c265327bc0ea459c27,RangeForm,13,0,target_only_base_positive,3,plus_trigger,100
1604282617,80a9f7f6d1e499c265327bc0ea459c27,RangeForm,13,0,target_only_base_positive,3,minus_trigger,98
1604282617,80a9f7f6d1e499c265327bc0ea459c27,RangeForm,65,0,target_accomplishment_base_positive,29,minus_trigger,99
1604282617,80a9f7f6d1e499c265327bc0ea459c27,RangeForm,65,0,target_accomplishment_base_positive,29,plus_trigger,97
1604282617,80a9f7f6d1e499c265327bc0ea459c27,RangeForm,29,0,target_too_base_positive,11,minus_trigger,100
1604282617,80a9f7f6d1e499c265327bc0ea459c27,RangeForm,29,0,target_too_base_positive,11,plus_trigger,99
1604282617,80a9f7f6d1e499c265327bc0ea459c27,RangeForm,89,0,target_question_base_positive,41,plus_trigger,100
1604282617,80a9f7f6d1e499c265327bc0ea459c27,RangeForm,89,0,target_question_base_positive,41,minus_trigger,97
1604282617,80a9f7f6d1e499c265327bc0ea459c27,RangeForm,64,0,target_accomplishment_base_neutral,28,minus_trigger,99
1604282617,80a9f7f6d1e499c265327bc0ea459c27,RangeForm,64,0,target_accomplishment_base_neutral,28,plus_trigger,95
1604282617,80a9f7f6d1e499c265327bc0ea459c27,RangeForm,68,0,target_possessive_base_neutral,30,minus_trigger,95
1604282617,80a9f7f6d1e499c265327bc0ea459c27,RangeForm,68,0,target_possessive_base_neutral,30,plus_trigger,92
1604282617,80a9f7f6d1e499c265327bc0ea459c27,RangeForm,20,0,target_even_base_neutral,6,plus_trigger,95
1604282617,80a9f7f6d1e499c265327bc0ea459c27,RangeForm,20,0,target_even_base_neutral,6,minus_trigger,93
1604282617,80a9f7f6d1e499c265327bc0ea459c27,RangeForm,60,0,target_accomplishment_base_neutral,26,plus_trigger,94
1604282617,80a9f7f6d1e499c265327bc0ea459c27,RangeForm,60,0,target_accomplishment_base_neutral,26,minus_trigger,89
1604282617,80a9f7f6d1e499c265327bc0ea459c27,RangeForm,40,0,target_cleft_base_neutral,16,plus_trigger,98
1604282617,80a9f7f6d1e499c265327bc0ea459c27,RangeForm,40,0,target_cleft_base_neutral,16,minus_trigger,95
1604282617,80a9f7f6d1e499c265327bc0ea459c27,Form,3,0,outro,NULL,review,Is there anything you would like us to know about the survey?%0AVery Interesting%2C listening.
1604282617,80a9f7f6d1e499c265327bc0ea459c27,Form,3,0,outro,NULL,nativeq,yes
1604282617,80a9f7f6d1e499c265327bc0ea459c27,Form,3,0,outro,NULL,_REACTION_TIME_,71218
#
# Results on Monday November 02 2020 02:10:52 UTC.
# USER AGENT: Mozilla/5.0 (Windows NT 6.1; Win64; x64) AppleWebKit/537.36 (KHTML, like Gecko) Chrome/86.0.4240.111 Safari/537.36
# Design number was non-random = 1
#
# Columns below this comment are as follows:
# 1. Time results were received.
# 2. MD5 hash of participant's IP address.
# 3. Controller name.
# 4. Item number.
# 5. Element number.
# 6. Type.
# 7. Group.
# 8. Field name.
# 9. Field value.
1604283052,7a0e1d10498e95fab36adee19f719dc5,Form,1,0,intro,NULL,TurkID,A2DHKTD1GSBXR2
1604283052,7a0e1d10498e95fab36adee19f719dc5,Form,1,0,intro,NULL,_REACTION_TIME_,77905
1604283052,7a0e1d10498e95fab36adee19f719dc5,Form,2,0,instructions,NULL,_REACTION_TIME_,18325
1604283052,7a0e1d10498e95fab36adee19f719dc5,RangeForm,4,0,practice1,NULL,minus_trigger,100
1604283052,7a0e1d10498e95fab36adee19f719dc5,RangeForm,4,0,practice1,NULL,plus_trigger,1
1604283052,7a0e1d10498e95fab36adee19f719dc5,RangeForm,5,0,practice1,NULL,plus_trigger,96
1604283052,7a0e1d10498e95fab36adee19f719dc5,RangeForm,5,0,practice1,NULL,minus_trigger,100
1604283052,7a0e1d10498e95fab36adee19f719dc5,RangeForm,6,0,practice1,NULL,plus_trigger,7
1604283052,7a0e1d10498e95fab36adee19f719dc5,RangeForm,6,0,practice1,NULL,minus_trigger,100
1604283052,7a0e1d10498e95fab36adee19f719dc5,RangeForm,16,0,target_only_base_neutral,4,plus_trigger,25
1604283052,7a0e1d10498e95fab36adee19f719dc5,RangeForm,16,0,target_only_base_neutral,4,minus_trigger,100
1604283052,7a0e1d10498e95fab36adee19f719dc5,RangeForm,65,0,target_accomplishment_base_positive,29,plus_trigger,100
1604283052,7a0e1d10498e95fab36adee19f719dc5,RangeForm,65,0,target_accomplishment_base_positive,29,minus_trigger,100
1604283052,7a0e1d10498e95fab36adee19f719dc5,RangeForm,21,0,target_even_base_positive,7,minus_trigger,45
1604283052,7a0e1d10498e95fab36adee19f719dc5,RangeForm,21,0,target_even_base_positive,7,plus_trigger,100
1604283052,7a0e1d10498e95fab36adee19f719dc5,RangeForm,61,0,target_accomplishment_base_positive,27,plus_trigger,100
1604283052,7a0e1d10498e95fab36adee19f719dc5,RangeForm,61,0,target_accomplishment_base_positive,27,minus_trigger,91
1604283052,7a0e1d10498e95fab36adee19f719dc5,RangeForm,132,0,target_still_base_neutral,62,minus_trigger,100
1604283052,7a0e1d10498e95fab36adee19f719dc5,RangeForm,132,0,target_still_base_neutral,62,plus_trigger,100
1604283052,7a0e1d10498e95fab36adee19f719dc5,RangeForm,105,0,target_again_base_positive,49,minus_trigger,81
1604283052,7a0e1d10498e95fab36adee19f719dc5,RangeForm,105,0,target_again_base_positive,49,plus_trigger,100
1604283052,7a0e1d10498e95fab36adee19f719dc5,RangeForm,97,0,target_again_base_positive,45,minus_trigger,100
1604283052,7a0e1d10498e95fab36adee19f719dc5,RangeForm,97,0,target_again_base_positive,45,plus_trigger,1
1604283052,7a0e1d10498e95fab36adee19f719dc5,RangeForm,109,0,target_back_base_positive,51,minus_trigger,1
1604283052,7a0e1d10498e95fab36adee19f719dc5,RangeForm,109,0,target_back_base_positive,51,plus_trigger,100
1604283052,7a0e1d10498e95fab36adee19f719dc5,RangeForm,32,0,target_too_base_neutral,12,minus_trigger,100
1604283052,7a0e1d10498e95fab36adee19f719dc5,RangeForm,32,0,target_too_base_neutral,12,plus_trigger,1
1604283052,7a0e1d10498e95fab36adee19f719dc5,RangeForm,85,0,target_definite_base_positive,39,plus_trigger,100
1604283052,7a0e1d10498e95fab36adee19f719dc5,RangeForm,85,0,target_definite_base_positive,39,minus_trigger,53
1604283052,7a0e1d10498e95fab36adee19f719dc5,RangeForm,84,0,target_definite_base_neutral,38,minus_trigger,100
1604283052,7a0e1d10498e95fab36adee19f719dc5,RangeForm,84,0,target_definite_base_neutral,38,plus_trigger,1
1604283052,7a0e1d10498e95fab36adee19f719dc5,RangeForm,104,0,target_again_base_neutral,48,minus_trigger,100
1604283052,7a0e1d10498e95fab36adee19f719dc5,RangeForm,104,0,target_again_base_neutral,48,plus_trigger,7
1604283052,7a0e1d10498e95fab36adee19f719dc5,RangeForm,69,0,target_possessive_base_positive,31,plus_trigger,77
1604283052,7a0e1d10498e95fab36adee19f719dc5,RangeForm,69,0,target_possessive_base_positive,31,minus_trigger,100
1604283052,7a0e1d10498e95fab36adee19f719dc5,RangeForm,41,0,target_cleft_base_positive,17,plus_trigger,1
1604283052,7a0e1d10498e95fab36adee19f719dc5,RangeForm,41,0,target_cleft_base_positive,17,minus_trigger,100
1604283052,7a0e1d10498e95fab36adee19f719dc5,RangeForm,37,0,target_cleft_base_positive,15,minus_trigger,100
1604283052,7a0e1d10498e95fab36adee19f719dc5,RangeForm,37,0,target_cleft_base_positive,15,plus_trigger,29
1604283052,7a0e1d10498e95fab36adee19f719dc5,RangeForm,125,0,target_stateChange_base_positive,59,minus_trigger,65
1604283052,7a0e1d10498e95fab36adee19f719dc5,RangeForm,125,0,target_stateChange_base_positive,59,plus_trigger,100
1604283052,7a0e1d10498e95fab36adee19f719dc5,RangeForm,77,0,target_definite_base_positive,35,minus_trigger,24
1604283052,7a0e1d10498e95fab36adee19f719dc5,RangeForm,77,0,target_definite_base_positive,35,plus_trigger,100
1604283052,7a0e1d10498e95fab36adee19f719dc5,RangeForm,29,0,target_too_base_positive,11,minus_trigger,1
1604283052,7a0e1d10498e95fab36adee19f719dc5,RangeForm,29,0,target_too_base_positive,11,plus_trigger,100
1604283052,7a0e1d10498e95fab36adee19f719dc5,RangeForm,52,0,target_embedding_base_neutral,22,minus_trigger,1
1604283052,7a0e1d10498e95fab36adee19f719dc5,RangeForm,52,0,target_embedding_base_neutral,22,plus_trigger,100
1604283052,7a0e1d10498e95fab36adee19f719dc5,RangeForm,89,0,target_question_base_positive,41,minus_trigger,64
1604283052,7a0e1d10498e95fab36adee19f719dc5,RangeForm,89,0,target_question_base_positive,41,plus_trigger,100
1604283052,7a0e1d10498e95fab36adee19f719dc5,RangeForm,117,0,target_stateChange_base_positive,55,minus_trigger,68
1604283052,7a0e1d10498e95fab36adee19f719dc5,RangeForm,117,0,target_stateChange_base_positive,55,plus_trigger,100
1604283052,7a0e1d10498e95fab36adee19f719dc5,RangeForm,93,0,target_question_base_positive,43,plus_trigger,100
1604283052,7a0e1d10498e95fab36adee19f719dc5,RangeForm,93,0,target_question_base_positive,43,minus_trigger,79
1604283052,7a0e1d10498e95fab36adee19f719dc5,RangeForm,33,0,target_too_base_positive,13,plus_trigger,100
1604283052,7a0e1d10498e95fab36adee19f719dc5,RangeForm,33,0,target_too_base_positive,13,minus_trigger,1
1604283052,7a0e1d10498e95fab36adee19f719dc5,RangeForm,129,0,target_still_base_positive,61,plus_trigger,100
1604283052,7a0e1d10498e95fab36adee19f719dc5,RangeForm,129,0,target_still_base_positive,61,minus_trigger,1
1604283052,7a0e1d10498e95fab36adee19f719dc5,RangeForm,57,0,target_accomplishment_base_positive,25,plus_trigger,100
1604283052,7a0e1d10498e95fab36adee19f719dc5,RangeForm,57,0,target_accomplishment_base_positive,25,minus_trigger,87
1604283052,7a0e1d10498e95fab36adee19f719dc5,RangeForm,120,0,target_stateChange_base_neutral,56,plus_trigger,5
1604283052,7a0e1d10498e95fab36adee19f719dc5,RangeForm,120,0,target_stateChange_base_neutral,56,minus_trigger,100
